Time,Aileron Command (norm),Elevator Command (norm),Rudder Command (norm),Flap Command (norm),Left Aileron Position (deg),Right Aileron Position (deg),Elevator Position (deg),Rudder Position (deg),Flap Position (deg),P (deg/s),Q (deg/s),R (deg/s),P dot (deg/s^2),Q dot (deg/s^2),R dot (deg/s^2),P_{inertial} (deg/s),Q_{inertial} (deg/s),R_{inertial} (deg/s),q bar (psf),Reynolds Number,V_{Total} (ft/s),V_{Inertial} (ft/s),UBody,VBody,WBody,UdotBody,VdotBody,WdotBody,UdotBody_i,VdotBody_i,WdotBody_i,BodyAccel_X,BodyAccel_Y,BodyAccel_Z,Aero V_{X Body} (ft/s),Aero V_{Y Body} (ft/s),Aero V_{Z Body} (ft/s),V_{X_{inertial}} (ft/s),V_{Y_{inertial}} (ft/s),V_{Z_{inertial}} (ft/s),V_{X_{ecef}} (ft/s),V_{Y_{ecef}} (ft/s),V_{Z_{ecef}} (ft/s),V_{North} (ft/s),V_{East} (ft/s),V_{Down} (ft/s),F_{Drag} (lbs),F_{Side} (lbs),F_{Lift} (lbs),L/D,F_{Aero x} (lbs),F_{Aero y} (lbs),F_{Aero z} (lbs),F_{Prop x} (lbs),F_{Prop y} (lbs),F_{Prop z} (lbs),F_{Gear x} (lbs),F_{Gear y} (lbs),F_{Gear z} (lbs),F_{Ext x} (lbs),F_{Ext y} (lbs),F_{Ext z} (lbs),F_{Buoyant x} (lbs),F_{Buoyant y} (lbs),F_{Buoyant z} (lbs),F_{Total x} (lbs),F_{Total y} (lbs),F_{Total z} (lbs),L_{Aero} (ft-lbs),M_{Aero} (ft-lbs),N_{Aero} (ft-lbs),L_{Aero MRC} (ft-lbs),M_{Aero MRC} (ft-lbs),N_{Aero MRC} (ft-lbs),L_{Prop} (ft-lbs),M_{Prop} (ft-lbs),N_{Prop} (ft-lbs),L_{Gear} (ft-lbs),M_{Gear} (ft-lbs),N_{Gear} (ft-lbs),L_{ext} (ft-lbs),M_{ext} (ft-lbs),N_{ext} (ft-lbs),L_{Buoyant} (ft-lbs),M_{Buoyant} (ft-lbs),N_{Buoyant} (ft-lbs),L_{Total} (ft-lbs),M_{Total} (ft-lbs),N_{Total} (ft-lbs),Rho (slugs/ft^3),Absolute Viscosity,Kinematic Viscosity,Temperature (R),P_{SL} (psf),P_{Ambient} (psf),Turbulence Magnitude (ft/sec),Turbulence X Direction (rad),Turbulence Y Direction (rad),Turbulence Z Direction (rad),Wind V_{North} (ft/s),Wind V_{East} (ft/s),Wind V_{Down} (ft/s),I_{xx},I_{xy},I_{xz},I_{yx},I_{yy},I_{yz},I_{zx},I_{zy},I_{zz},Mass,X_{cg},Y_{cg},Z_{cg},Altitude ASL (ft),Altitude AGL (ft),Phi (deg),Theta (deg),Psi (deg),Q(1)_{LOCAL},Q(2)_{LOCAL},Q(3)_{LOCAL},Q(4)_{LOCAL},Q(1)_{ECEF},Q(2)_{ECEF},Q(3)_{ECEF},Q(4)_{ECEF},Q(1)_{ECI},Q(2)_{ECI},Q(3)_{ECI},Q(4)_{ECI},Alpha (deg),Beta (deg),Latitude (deg),Latitude Geodetic (deg),Longitude (deg),X_{ECI} (ft),Y_{ECI} (ft),Z_{ECI} (ft),X_{ECEF} (ft),Y_{ECEF} (ft),Z_{ECEF} (ft),Earth Position Angle (deg),Distance AGL (ft),Terrain Elevation (ft),aero/force/CdBAS,aero/force/CdDS1,aero/force/CdDS2,aero/force/CYDA,aero/force/CYDR,aero/force/lift-basic,aero/force/CLDS1,aero/force/CLDS2,aero/force/CLDA,aero/force/CLDR,aero/force/CMBAS,aero/force/CMxzcg,aero/force/CMDS1,aero/force/CMDS2,aero/force/DCNDS,aero/force/CNDA,aero/force/CNDR,calculations/pitch-weights-delta/mass-center-m,aero/function/kCLge,aero/coefficients/ClBAS,aero/coefficients/CdBAS,Pitch Trim Sum,Elevator Control,Stabilzer Control,elevator normalization,fcs/stabilizer-1p,fcs/stabilizer-2p,Roll Trim Sum,Left Aileron Control,Right Aileron Control,left aileron normalization,right aileron normalization,Rudder Command Sum,Yaw Damper Rate,Rudder Sum,Rudder Control,rudder normalization,Flaps Control,flap normalization,Gear Control,Speedbrake Control,cg-x-offset-chord-in,cg-x-chord-percent,aero-cos-alpha,aero-sin-alpha,CLxzcg,NOSE_LG WOW,NOSE_LG stroke (ft),NOSE_LG stroke velocity (ft/sec),NOSE_LG compress force (lbs),NOSE_LG wheel side force (lbs),NOSE_LG wheel roll force (lbs),NOSE_LG body X force (lbs),NOSE_LG body Y force (lbs),NOSE_LG wheel velocity vec X (ft/sec),NOSE_LG wheel velocity vec Y (ft/sec),NOSE_LG wheel rolling velocity (ft/sec),NOSE_LG wheel side velocity (ft/sec),NOSE_LG wheel slip (deg),LEFT_MLG WOW,LEFT_MLG stroke (ft),LEFT_MLG stroke velocity (ft/sec),LEFT_MLG compress force (lbs),LEFT_MLG wheel side force (lbs),LEFT_MLG wheel roll force (lbs),LEFT_MLG body X force (lbs),LEFT_MLG body Y force (lbs),LEFT_MLG wheel velocity vec X (ft/sec),LEFT_MLG wheel velocity vec Y (ft/sec),LEFT_MLG wheel rolling velocity (ft/sec),LEFT_MLG wheel side velocity (ft/sec),LEFT_MLG wheel slip (deg),RIGHT_MLG WOW,RIGHT_MLG stroke (ft),RIGHT_MLG stroke velocity (ft/sec),RIGHT_MLG compress force (lbs),RIGHT_MLG wheel side force (lbs),RIGHT_MLG wheel roll force (lbs),RIGHT_MLG body X force (lbs),RIGHT_MLG body Y force (lbs),RIGHT_MLG wheel velocity vec X (ft/sec),RIGHT_MLG wheel velocity vec Y (ft/sec),RIGHT_MLG wheel rolling velocity (ft/sec),RIGHT_MLG wheel side velocity (ft/sec),RIGHT_MLG wheel slip (deg), Total Gear Force_X (lbs), Total Gear Force_Y (lbs), Total Gear Force_Z (lbs), Total Gear Moment_L (ft-lbs), Total Gear Moment_M (ft-lbs), Total Gear Moment_N (ft-lbs),F100-PW-229_N1[0],F100-PW-229_N2[0],Direct Thrust (engine 0 in lbs),F100-PW-229_N1[1],F100-PW-229_N2[1],Direct Thrust (engine 1 in lbs),Fuel Tank 0,Fuel Tank 1,Fuel Tank 2,Fuel Tank 3,Fuel Tank 4,Fuel Tank 5,Fuel Tank 6,Fuel Tank 7,Fuel Tank 8,Fuel Tank 9,Fuel Tank 10,Fuel Tank 11
0,0,0,-0,0,0,0,0,0,0,0,0,0,0.003810028483290533,-219.0371790935859,-4.700566038162931e-008,0.001571287615418323,0.002932236230631912,-0.002527716236427449,512.2974054,40286383.73,674.722909031,691.603629654,674.7229090309564,-8.526512829121202e-014,2.842170943040401e-014,-3.350914405908163,-0.0324800624222279,14.17982369720244,7.921501437312987,7.222612927150349,-9.861735049957355,-3.064803695139262,7.37353236935052e-016,-17.96762925947775,674.7229090309564,-8.526512829121202e-014,2.842170943040401e-014,620.3464297468059,-170.5788267595955,253.7493872160819,-403.1240763573491,477.8631933092288,253.7493872160819,315.714320586868,-596.280589434942,-4.993036219236417,7294.090458724088,0,22461.16744432506,3.079365079,-7294.090458724088,9.217584735992424e-013,-22461.16744432506,3462.807656392377,0,0,0,0,0,0,0,0,0,0,0,-3831.282802331711,9.217584735992424e-013,-22461.16744432506,0,-862507.3960719069,-3.470420514284321e-011,0,-16844.47561958659,0,0,0,0,0,0,0,0,0,0,0,0,0,0,-862507.3960719069,-3.470420514284321e-011,0.002250615159,3.700261826e-007,0.0001644111305,512.0899962,2116.22,1978.365454,0,0,0,0,0,0,0, 58987.49707, 1.026019218,           0, 1.026019218, 225614.8194,           0,           0,           0, 285052.3165,1250.090767,450.491552589804,-0.09058989943417081,0,23122.878421666,23123.307423917,-4.646718838272428e-015,0.4240000000000042,297.9,0.8567116543296287,0.001908454023317692,0.00316993155718502,-0.5157823675475485,0.01435162106727813,0.4483982299091041,0.7755235650085292,0.4441804346249225,-0.01435162106727814,-0.4483982299091041,-0.7755235650085292,-0.4441804346249225,2.4135003793603e-015,-7.240501138081e-015,37.427857419843,37.613555318147,-122.35719286244,-8892372.37850506,-14035303.97016716,12716065.89828305,-8892372.37850506,-14035303.97016716,12716065.89828305,0,23123.307423917,-0.42899944260716,7294.09,0,-0,-0,0,22461.2,-0,0,0,0,203649,-220494,0,-0,0,0,-0,0,1,0.0776,0.0252,0,0,0,0,-10,0,0,0,0,0,0,0,0,0,0,0,0,0,1,0,-469.98,-1,1,4.21235281e-017,-0.0776,0,0,0,0,0,0,0,0,0,0,0,0,0,0,0,0,0,0,0,0,0,0,0,0,0,0,0,0,0,0,0,0,0,0,0,0,0,0,0,0,0,0,0,0,0,0,0,1731.4,0,0,1731.4,0,0,0,0,0,94.4354,0,0,0,0,11.0231,11.0231
0.03333333333,0,0,-0,0,0,0,0,0,0,-0.01167968699729841,1.030579784217081,0.0003624431805972229,-0.2080795494243819,19.6932372998033,0.005716713056151433,-0.01010839938187776,1.033512020447718,-0.002165273055833959,258.9167322,22729882.95,675.3882536,691.705421433,674.5286237498003,-0.001118286676472735,0.7089109722006981,-3.284168790015291,-0.03665443259655574,34.47421403985982,11.30686619262978,12.79692453024076,-14.76942567132628,-2.985199998354707,0.0002154113427309596,-9.805971419943342,675.3878730996097,-0.04856693113641486,0.7152706255690262,620.7591649650202,-170.2368484620493,253.2466477130141,-402.7105933939053,478.2046426010845,253.2466477137621,315.6244421198072,-596.1142764288655,-4.283431966473545,3744.751095694155,0,12254.39532441822,3.272419184,-3731.770955952644,0.2692837306810956,-12258.35433472292,0,0,0,0,0,0,0,0,0,0,0,0,-3731.770955952644,0.2692837306810956,-12258.35433472292,-92.5402534993048,79298.89828226935,28.14236654189628,0,80635.51589401571,0,0,0,0,0,0,0,0,0,0,0,0,0,-92.5402534993048,79298.89828226935,28.14236654189628,0.001135228032,3.311337557e-007,0.0002916891993,445.2457578,2116.22,867.6446337,0,0,0,0,-0.3601453519038189,0.7815987395715268,3.33116794023439e-032, 58987.35479, 354.2790325,           0, 354.2790325, 230717.0769,           0,           0,           0, 290154.4317,1250.090767,450.491552589804,-0.09058989943417083,0,23123.078976038,23123.503671783,-1.847602516455391e-011,0.424061587909514,297.899958343678,0.8567114651290834,0.001908732385955516,0.003170391308136949,-0.5157826779538578,0.01435162106729314,0.4483982299095728,0.7755235650088638,0.444180434625387,-0.01435108123147647,-0.4483972873746005,-0.7755241099704389,-0.4441804520672011,0.060679165802976,-0.0041201193026159,37.427886238658,37.613584185429,-122.35726140289,-8892351.700290736,-14035309.65612805,12716074.35659596,-8892385.815961825,-14035288.04140285,12716074.35659596,0.00013926913774135,23123.503671783,-0.42469261586666,3744.75,0,-0,-0,0,12254.4,-0,0,0,0,102361,-21725,0,-0,0,0,-0,11.4425,1,0.083769,0.0255985,0,0,0,0,-10,0,0,0,0,0,0,0,0,0,0,0,0,0,1,0,-19.4884474,-0.194884474,0.999999439,0.00105905103,-0.0151282278,0,0,0,0,0,0,0,0,0,0,0,0,0,0,0,0,0,0,0,0,0,0,0,0,0,0,0,0,0,0,0,0,0,0,0,0,0,0,0,0,0,0,0,0,0,0,0,0,0,0,0,0,0,0,0,0,94.4354,0,0,0,0,11.0231,11.0231
0.1333333333,0,0,-0,0,0,0,0,0,0,-0.03318877462546708,2.915006806430791,0.000963920637592028,-0.2284496301321571,16.71298732509345,0.007101908941187228,-0.03161008431525126,2.917939123572697,-0.001559084819836181,258.6746009,22719049.25,675.067176494,691.846441896,674.2283668781612,-0.005114403312262539,4.880049138821505,-3.793610132424402,-0.04715205006602581,52.45439301104742,9.680647212910674,9.815417432474686,-12.32419180418463,-3.164587611258152,0.0004303316142174441,-13.99438321001604,675.0494701257194,-0.08895176797699633,4.88853256982,621.8507035747865,-168.9561617046018,251.8074999872665,-401.6167910836836,479.483724102033,251.8074999872665,315.492741538598,-595.8755538896874,-2.088042639562132,4082.603539701545,0,17465.14280802453,4.277942406,-3956.021754579105,0.5379535777334742,-17494.24924239326,0,0,0,0,0,0,0,0,0,0,0,0,-3956.021754579105,0.5379535777334742,-17494.24924239326,-132.0668513460528,67297.97685616785,29.80597621952108,0,69205.50220607787,0,0,0,0,0,0,0,0,0,0,0,0,0,-132.0668513460528,67297.97685616785,29.80597621952108,0.001135245527,3.311392667e-007,0.0002916895587,445.2549223,2116.22,867.6758638,0,0,0,0,-0.3101453519038189,0.7649320729048601,3.005584801842789e-032, 58987.35479, 354.2790325,           0, 354.2790325, 230717.0769,           0,           0,           0, 290154.4317,1250.090767,450.491552589804,-0.09058989943417083,0,23123.480913315,23123.898366423,-0.001869798948113716,0.5921353271754186,297.8998860791638,0.8567056116563876,0.00265126272956475,0.004435357682718202,-0.5157797915434651,0.0132224836111145,0.4477471168668668,0.7755362929978737,0.4448495740221388,-0.0132203210147906,-0.4477433466616859,-0.7755384696710209,-0.4448496382967963,0.41491387007652,-0.0075497092400839,37.427972651242,37.61367074417,-122.35746692312,-8892289.5612069,-14035326.60378271,12716099.59744173,-8892426.0237408,-14035240.14498851,12716099.59744173,0.00055707655096539,23123.898366423,-0.41745007783175,4082.6,0,-0,-0,0,17465.1,-0,0,0,0,98976.9,-29771.4,0,-0,0,0,-0,11.4425,1,0.119501,0.0279341,0,0,0,0,-10,0,0,0,0,0,0,0,0,0,0,0,0,0,1,0,-19.4884474,-0.194884474,0.99997378,0.00724154985,-0.0207506812,0,0,0,0,0,0,0,0,0,0,0,0,0,0,0,0,0,0,0,0,0,0,0,0,0,0,0,0,0,0,0,0,0,0,0,0,0,0,0,0,0,0,0,0,0,0,0,0,0,0,0,0,0,0,0,0,94.4354,0,0,0,0,11.0231,11.0231
0.2333333333,0,0,-0,0,0,0,0,0,0,-0.0568715168945291,4.448977279741416,0.001722382320713984,-0.2537639851931045,12.3259219620732,0.00926632286301006,-0.05527762541056138,4.451909773320818,-0.000790841664249532,258.3830648,22706215.59,674.689202495,692.039928644,673.8096659468788,-0.01046357182565316,10.49782168237837,-4.714657210897757,-0.0655840313680354,64.82855661425369,7.492163003160453,5.806669469397512,-9.035851106417187,-3.324532108808425,0.0007451176744808905,-19.63577951217715,674.6073097903716,-0.1384899521978092,10.51086871815799,622.7161849212188,-168.1625852900386,250.7292579337057,-400.7490287470451,480.2756765310095,250.7292579337056,315.3240360644322,-595.5670713884348,-0.5348372136387756,4537.868507301961,0,24478.78266930223,5.394334946,-4155.966894218497,0.9314647252871823,-24546.50667339504,0,0,0,0,0,0,0,0,0,0,0,0,-4155.966894218497,0.9314647252871823,-24546.50667339504,-185.3054568380364,49632.101603137,31.272486281726,0,52308.58591992447,0,0,0,0,0,0,0,0,0,0,0,0,0,-185.3054568380364,49632.101603137,31.272486281726,0.001135236957,3.31138417e-007,0.000291691012,445.2535092,2116.22,867.6665604,0,0,0,0,-0.2601453519038189,0.7649320729048601,2.711836321296521e-032, 58987.35479, 354.2790325,           0, 354.2790325, 230717.0769,           0,           0,           0, 290154.4317,1250.090767,450.491552589804,-0.09058989943417083,0,23123.709322174,23124.117720871,-0.005958811136524761,0.9380578946612266,297.8998578520076,0.8566883923533498,0.004177688019161203,0.007039911456426226,-0.5157693137212924,0.0108980461902021,0.4464032521390881,0.7755563080689059,0.4462261557589494,-0.01089424993528999,-0.4463966541028482,-0.775560105801999,-0.446226248457575,0.89263736521093,-0.011760807483329,37.428059024356,37.613757264952,-122.35767235303,-8892227.330930073,-14035343.45618071,12716124.72137642,-8892466.140099486,-14035192.153479,12716124.72137642,0.00097488396418943,23124.117720871,-0.40839573740959,4537.87,0,-0,-0,0,24478.8,-0,0,0,0,94436.2,-42127.6,0,-0,0,0,-0,11.4425,1,0.167678,0.0310842,0,0,0,0,-10,0,0,0,0,0,0,0,0,0,0,0,0,0,1,0,-19.4884474,-0.194884474,0.999878643,0.0155788308,-0.0293961219,0,0,0,0,0,0,0,0,0,0,0,0,0,0,0,0,0,0,0,0,0,0,0,0,0,0,0,0,0,0,0,0,0,0,0,0,0,0,0,0,0,0,0,0,0,0,0,0,0,0,0,0,0,0,0,0,94.4354,0,0,0,0,11.0231,11.0231
0.3333333333,0,0,-0,0,0,0,0,0,0,-0.08323696220279797,5.508692654617805,0.00270353655318806,-0.2826381345549324,6.986725104633716,0.01174463487966337,-0.08162188449799088,5.511625428799038,0.0002042040295276194,258.0665625,22692279.84,674.277038198,692.257510836,673.2851285678077,-0.01807559068916476,17.11625146347024,-5.884677061842822,-0.0947960552890901,70.59022396987925,4.917611411710704,1.088670609754256,-5.169321089002928,-3.392304977875705,0.001145541799836179,-26.28007225381906,674.0592443560405,-0.1902931540473188,17.13543485120193,623.3402330694979,-167.8111661187442,250.0136549698864,-400.1226946158145,480.625459504004,250.0136549698862,315.1377763864042,-595.2258845459492,0.3987507767261462,5074.201325856959,0,32734.09668561539,6.451083547,-4240.6891321008,1.432031227326303,-32852.47568377022,0,0,0,0,0,0,0,0,0,0,0,0,-4240.6891321008,1.432031227326303,-32852.47568377022,-248.008529109349,28132.19129104644,31.8574874305236,0,31714.33587500695,0,0,0,0,0,0,0,0,0,0,0,0,0,-248.008529109349,28132.19129104644,31.8574874305236,0.00113523296,3.311381941e-007,0.0002916918429,445.2531385,2116.22,867.6627826,0,0,0,0,-0.2101453519038189,0.7649320729048601,2.449721108451923e-032, 58987.35479, 354.2790325,           0, 354.2790325, 230717.0769,           0,           0,           0, 290154.4317,1250.090767,450.491552589804,-0.09058989943417083,0,23123.812625089,23124.216568056,-0.01250136188858314,1.422337415475146,297.8998586888815,0.8566515825374265,0.006308448422445336,0.0106897640120604,-0.5157460601497509,0.007646305276831458,0.4445149350665648,0.7755691452236074,0.4481523262190033,-0.007640858645766388,-0.4445055091347401,-0.7755745475897046,-0.4481524191154677,1.456217234456,-0.016169903651201,37.428145348926,37.61384373821,-122.35787767128,-8892165.025900178,-14035360.25082139,12716149.755205,-8892506.181476638,-14035144.10437524,12716149.755205,0.0013926913774135,23124.216568056,-0.40394005179405,5074.2,0,-0,-0,0,32734.1,-0,0,0,0,89101.8,-57387.5,0,-0,0,0,-0,11.4425,1,0.224502,0.0348007,0,0,0,0,-10,0,0,0,0,0,0,0,0,0,0,0,0,0,1,0,-19.4884474,-0.194884474,0.999677036,0.0254130492,-0.0400934127,0,0,0,0,0,0,0,0,0,0,0,0,0,0,0,0,0,0,0,0,0,0,0,0,0,0,0,0,0,0,0,0,0,0,0,0,0,0,0,0,0,0,0,0,0,0,0,0,0,0,0,0,0,0,0,0,94.4354,0,0,0,0,11.0231,11.0231
0.4333333333,0,0,-0,0,0,0,0,0,0,-0.1125412189418778,6.01664796189691,0.003923153431293784,-0.3121794087969591,1.237629164432342,0.01399239019680191,-0.1109012549857687,6.019581130665742,0.001440545397247636,257.7189445,22676980.91,673.823261766,692.499198801,672.6416612818514,-0.02908822951613388,24.07209814817384,-7.017557627254536,-0.1362264534268567,69.50413588328922,2.224280650700356,-3.87353490644967,-1.120887974668623,-3.32206122815624,0.001642925660643317,-33.25745242648302,673.3921642374449,-0.2455000527809226,24.09815282705326,623.6973299637552,-167.9498776034079,249.6990579663976,-399.7633213608357,480.4851075659226,249.6990579663977,314.931497251685,-594.8478843231712,0.6463763984903643,5637.075742600252,0,41399.71760363862,7.344183313,-4152.878069128544,2.05380619943627,-41574.8342163101,0,0,0,0,0,0,0,0,0,0,0,0,-4152.878069128544,2.05380619943627,-41574.8342163101,-313.8549916664545,4981.712327126091,31.12679119176426,0,9514.919159102661,0,0,0,0,0,0,0,0,0,0,0,0,0,-313.8549916664545,4981.712327126091,31.12679119176426,0.001135231257,3.311380981e-007,0.0002916921957,445.252979,2116.22,867.6611707,0,0,0,0,-0.160145351903819,0.7649320729048601,2.210323636842495e-032, 58987.35479, 354.2790325,           0, 354.2790325, 230717.0769,           0,           0,           0, 290154.4317,1250.090767,450.491552589804,-0.09058989943417083,0,23123.856630029,23124.24629724,-0.02177609705343676,1.994569958172955,297.8998733629853,0.8565888647712076,0.008814504875463532,0.0150091831648719,-0.515705871281778,0.003809316729412889,0.4422736821072135,0.7755601572154899,0.4504285978501668,-0.003802200145145652,-0.4422614285253247,-0.7755671448582174,-0.450428657979561,2.0495241378732,-0.020875084022665,37.428231619791,37.613930158256,-122.35808286585,-8892102.671752926,-14035377.0346902,12716174.73742977,-8892546.173508193,-14035096.04466351,12716174.73742977,0.0018104987906375,23124.24629724,-0.38966432213783,5637.08,0,-0,-0,0,41399.7,-0,0,0,0,83495.2,-73980.3,0,-0,0,0,-0,11.4425,1,0.284317,0.0387132,0,0,0,0,-10,0,0,0,0,0,0,0,0,0,0,0,0,0,1,0,-19.4884474,-0.194884474,0.999360288,0.0357633163,-0.0517555867,0,0,0,0,0,0,0,0,0,0,0,0,0,0,0,0,0,0,0,0,0,0,0,0,0,0,0,0,0,0,0,0,0,0,0,0,0,0,0,0,0,0,0,0,0,0,0,0,0,0,0,0,0,0,0,0,94.4354,0,0,0,0,11.0231,11.0231
0.5333333333,0,0,-0,0,0,0,0,0,0,-0.1447494192185703,5.950533010243296,0.005343509254285487,-0.3395368296053026,-4.366546666682518,0.01548750400167732,-0.1430833708611217,5.953466697640683,0.002878947512402547,257.3372049,22660167.07,673.324652162,692.765425038,671.8959582878964,-0.04472156233671853,30.70153276221276,-7.814100946943067,-0.1894709573360725,61.99663834674597,-0.3189566672456738,-8.617443059129929,2.712528244159405,-3.119393076023459,0.002238899092695224,-39.89712413648206,672.6227716697897,-0.305331649753079,30.73436209273107,623.7892230793077,-168.5797254401878,249.7835372240261,-399.6691758737514,479.8536227495088,249.783537224026,314.7037148855114,-594.4310665810186,0.209280169062442,6172.040384671443,0,49645.04493562676,8.043538577,-3899.524483357893,2.798827084293734,-49875.02651769395,0,0,0,0,0,0,0,0,0,0,0,0,-3899.524483357893,2.798827084293734,-49875.02651769395,-376.5144546489627,-17585.18526073907,29.13294989621929,0,-12146.94803822419,0,0,0,0,0,0,0,0,0,0,0,0,0,-376.5144546489627,-17585.18526073907,29.13294989621929,0.001135229177,3.311379812e-007,0.0002916926274,445.2527845,2116.22,867.6592013,0,0,0,0,-0.110145351903819,0.7649320729048601,1.99670651897374e-032, 58987.35479, 354.2790325,           0, 354.2790325, 230717.0769,           0,           0,           0, 290154.4317,1250.090767,450.491552589804,-0.09058989943417083,0,23123.910414952,23124.287203997,-0.03407766280969319,2.598420676855396,297.8998951860121,0.8565002438508576,0.01144000895158118,0.01957816728400837,-0.5156482850203309,-0.0002305855912581987,0.4398972763363054,0.7755193815813021,0.4528355351492855,0.0002393912680097777,-0.4398821957824293,-0.7755279355187494,-0.4528355305797852,2.6162141568133,-0.025981843121303,37.428317831242,37.614016518713,-122.35828792363,-8892040.295318676,-14035393.85723346,12716199.70838283,-8892586.143026203,-14035048.02379016,12716199.70838283,0.0022283062038615,23124.287203997,-0.37678615748882,6172.04,0,-0,-0,0,49645,-0,0,0,0,78138.7,-90285.6,0,-0,0,0,-0,11.4425,1,0.341448,0.04245,0,0,0,0,-10,0,0,0,0,0,0,0,0,0,0,0,0,0,1,0,-19.4884474,-0.194884474,0.998957692,0.0456456854,-0.0632562604,0,0,0,0,0,0,0,0,0,0,0,0,0,0,0,0,0,0,0,0,0,0,0,0,0,0,0,0,0,0,0,0,0,0,0,0,0,0,0,0,0,0,0,0,0,0,0,0,0,0,0,0,0,0,0,0,94.4354,0,0,0,0,11.0231,11.0231
0.6333333333,0,0,-0,0,0,0,0,0,0,-0.1795508191224559,5.342415627809978,0.006877263263611401,-0.3621879107847781,-9.311027406887803,0.01580612276141779,-0.1778599434842597,5.345349967350935,0.004430450134451647,256.9216995,22641834.91,672.782328459,693.057182949,671.0914740299913,-0.06605844160810648,36.40294112751928,-8.062782769671106,-0.2520280590085235,49.07817003789565,-2.471576836960679,-12.72156109006149,5.974056193903021,-2.83813060785494,0.002923557994951063,-45.59230340457209,671.7945564990674,-0.3708715172328724,36.44170412689019,623.6434467387969,-169.6570963319544,250.2270565720705,-399.812736009622,478.7746247306511,250.2270565720703,314.4539799008302,-593.9755228115618,-0.8472469874062369,6629.859968433258,0,56718.67189927068,8.555033163,-3547.920868762782,3.654712856630912,-56994.51753783185,0,0,0,0,0,0,0,0,0,0,0,0,-3547.920868762782,3.654712856630912,-56994.51753783185,-430.2606171271807,-37495.60330014667,26.38531520536633,0,-31281.0761430823,0,0,0,0,0,0,0,0,0,0,0,0,0,-430.2606171271807,-37495.60330014667,26.38531520536633,0.001135224174,3.311377025e-007,0.0002916936673,445.2523211,2116.22,867.6544746,0,0,0,0,-0.06014535190381898,0.7649320729048601,1.801603773338873e-032, 58987.35479, 354.2790325,           0, 354.2790325, 230717.0769,           0,           0,           0, 290154.4317,1250.090767,450.491552589804,-0.09058989943417083,0,23124.039679002,23124.401783379,-0.04968720666450063,3.177164020077861,297.899936335003,0.8563940806540836,0.01392752045398698,0.02397384538400951,-0.5155777899911457,-0.004088441276528486,0.4376093767317137,0.7754443499865664,0.4551564325793062,0.004098951610093797,-0.437591470288685,-0.7754544549231723,-0.4551563380489064,3.104984192987,-0.03158432208515,37.428403977304,37.61410281279,-122.35849283118,-8891977.921940459,-14035410.76573312,12716224.70626632,-8892626.115376731,-14035000.08903646,12716224.70626632,0.0026461136170856,23124.401783379,-0.36210174486041,6629.86,0,-0,-0,0,56718.7,-0,0,0,0,73506.1,-104787,0,-0,0,0,-0,11.4425,1,0.39073,0.0456725,0,0,0,0,-10,0,0,0,0,0,0,0,0,0,0,0,0,0,1,0,-19.4884474,-0.194884474,0.998531962,0.0541656761,-0.0735351552,0,0,0,0,0,0,0,0,0,0,0,0,0,0,0,0,0,0,0,0,0,0,0,0,0,0,0,0,0,0,0,0,0,0,0,0,0,0,0,0,0,0,0,0,0,0,0,0,0,0,0,0,0,0,0,0,94.4354,0,0,0,0,11.0231,11.0231
0.7333333333,0,0,-0,0,0,0,0,0,0,-0.2164003300617709,4.273357278405658,0.008399923822190786,-0.3781767465646109,-13.16873594015191,0.01468255055280801,-0.2146880639812095,4.276292411899126,0.005968989907132491,256.4759182,22622121.27,672.201398935,693.375045422,670.2865708671513,-0.0938654307352067,40.6904783971863,-7.705983940207167,-0.3194450026671657,32.21579149096269,-4.046322196387697,-15.83913084663223,8.381251775430194,-2.559903294693191,0.003674015903811492,-49.85555157546747,670.9659357281479,-0.4428865162487911,40.73374121995467,623.3092434210969,-171.0995271337077,250.9571527071196,-400.1447676527168,477.3305807855228,250.9571527071197,314.1830992616246,-593.4837967854417,-2.402918902646704,6970.910922241081,0,62015.51187525022,8.896328266,-3200.111473418415,4.592853359610217,-62323.96471421338,0,0,0,0,0,0,0,0,0,0,0,0,-3200.111473418415,4.592853359610217,-62323.96471421338,-470.4934558302111,-53029.78797555643,23.65735484298231,0,-46234.15239542701,0,0,0,0,0,0,0,0,0,0,0,0,0,-470.4934558302111,-53029.78797555643,23.65735484298231,0.00113521407,3.311371414e-007,0.0002916957693,445.251388,2116.22,867.6449338,0,0,0,0,-0.01014535190381898,0.7649320729048601,1.627511295369217e-032, 58987.35479, 354.2790325,           0, 354.2790325, 230717.0769,           0,           0,           0, 290154.4317,1250.090767,450.491552589804,-0.09058989943417083,0,23124.300728389,23124.647946593,-0.06884469492013323,3.678970121717139,297.9000371104462,0.8562859914566365,0.01604204993575069,0.02780996790944603,-0.515503209644576,-0.007412622412829147,0.435618464950324,0.7753400263534495,0.4571973857728418,0.007424846841865446,-0.4355977339429466,-0.7753516735360893,-0.4571971874125329,3.4741116055274,-0.037749891714636,37.428490052039,37.614189034414,-122.35869757552,-8891915.573070666,-14035427.80109632,12716249.76358415,-8892666.112016244,-14034952.28130833,12716249.76358415,0.0030639210303096,23124.647946593,-0.34721561893821,6970.91,0,-0,-0,0,62015.5,-0,0,0,0,69980.7,-116215,0,-0,0,0,-0,11.4425,1,0.427962,0.0481055,0,0,0,0,-10,0,0,0,0,0,0,0,0,0,0,0,0,0,1,0,-19.4884474,-0.194884474,0.998162281,0.0605975384,-0.0816963629,0,0,0,0,0,0,0,0,0,0,0,0,0,0,0,0,0,0,0,0,0,0,0,0,0,0,0,0,0,0,0,0,0,0,0,0,0,0,0,0,0,0,0,0,0,0,0,0,0,0,0,0,0,0,0,0,94.4354,0,0,0,0,11.0231,11.0231
0.8333333333,0,0,-0,0,0,0,0,0,0,-0.2545816410827591,2.863128463465924,0.00976587672735308,-0.3862839359878217,-15.63592160445784,0.0120465974121637,-0.252853149466624,2.866064539465995,0.007347596778866579,256.0060455,22601285.64,671.590348473,693.717597493,669.5384533800186,-0.1283889672679379,43.23334607787749,-6.850658730038002,-0.3858745838957902,13.16250369389132,-4.925602269981443,-17.72525725724065,9.750129097893055,-2.365096899676875,0.004453834552597374,-52.35849578202603,670.1941721037548,-0.5216227998941894,43.27927621344442,622.8512312679687,-172.7946754394828,251.8778452338074,-400.6006560868048,475.6338346612017,251.8778452338071,313.8935469743553,-592.9614319956072,-4.296578278192527,7168.421075659448,0,65126.28995666566,9.085165236,-2956.585797632405,5.567697452486169,-65452.87215745106,0,0,0,0,0,0,0,0,0,0,0,0,-2956.585797632405,5.567697452486169,-65452.87215745106,-494.1140724371973,-62964.59945940526,21.71264669512385,0,-55827.79632285194,0,0,0,0,0,0,0,0,0,0,0,0,0,-494.1140724371973,-62964.59945940526,21.71264669512385,0.001135197234,3.311362078e-007,0.0002916992728,445.2498355,2116.22,867.6290411,0,0,0,0,0.03985464809618101,0.7649320729048601,1.46850746860701e-032, 58987.35479, 354.2790325,           0, 354.2790325, 230717.0769,           0,           0,           0, 290154.4317,1250.090767,450.491552589804,-0.09058989943417083,0,23124.73566541,23125.066192759,-0.09172644539362929,4.061497143367415,297.9002707934098,0.8561950347544667,0.01759188111732868,0.03077113578035022,-0.5154354715998292,-0.00991603618620172,0.4340980884105925,0.7752161782634877,0.4588032245126178,0.009929976372770462,-0.4340745341872143,-0.7752293674605799,-0.4588029230138557,3.6948716946142,-0.04450151495568,37.428576049955,37.61427517746,-122.35890214501,-8891853.264410511,-14035444.99440297,12716274.90433683,-8892706.148650622,-14034904.6316842,12716274.90433683,0.0034817284435337,23125.066192759,-0.33052491769195,7168.42,0,-0,-0,0,65126.3,-0,0,0,0,67823.4,-123651,0,-0,0,0,-0,11.4425,1,0.450254,0.0495593,0,0,0,0,-10,0,0,0,0,0,0,0,0,0,0,0,0,0,1,0,-19.4884474,-0.194884474,0.99792139,0.0644429887,-0.0870834651,0,0,0,0,0,0,0,0,0,0,0,0,0,0,0,0,0,0,0,0,0,0,0,0,0,0,0,0,0,0,0,0,0,0,0,0,0,0,0,0,0,0,0,0,0,0,0,0,0,0,0,0,0,0,0,0,94.4354,0,0,0,0,11.0231,11.0231
0.9333333333,0,0,-0,0,0,0,0,0,0,-0.293284849349742,1.257232562942898,0.0108292056848974,-0.3861063154081984,-16.55354898524507,0.008037592856810417,-0.2915464605958598,1.260169735002141,0.008419365796175663,255.5202196,22579678.89,670.960049559,694.080079698,668.8882826589122,-0.1692837344869815,43.87788422470581,-5.724772372870605,-0.4450085168334674,-6.222342623642611,-5.067837764471936,-18.25539253840424,10.00666728005483,-2.306179045416736,0.005215699722568321,-52.95299273616999,669.5204713345618,-0.6067341180785967,43.92446291316938,622.3420270693611,-174.6115474234024,252.8801413389121,-401.1077825065008,473.815378590161,252.8801413389121,313.5896423272592,-592.4171937817011,-6.343248086276766,7210.284030494922,0,65865.31583271148,9.134912793,-2882.933132003229,6.520098067257871,-66196.04731090795,0,0,0,0,0,0,0,0,0,0,0,0,-2882.933132003229,6.520098067257871,-66196.04731090795,-499.7244190805862,-66659.6401366933,21.05278391399563,0,-59441.80320297611,0,0,0,0,0,0,0,0,0,0,0,0,0,-499.7244190805862,-66659.6401366933,21.05278391399563,0.001135172714,3.311348488e-007,0.0002917043765,445.2475756,2116.22,867.6058967,0,0,0,0,0.089854648096181,0.7649320729048601,1.3266263274921e-032, 58987.35479, 354.2790325,           0, 354.2790325, 230717.0769,           0,           0,           0, 290154.4317,1250.090767,450.491552589804,-0.09058989943417083,0,23125.369130082,23125.679561832,-0.118430563909701,4.295340194227618,297.900740934497,0.8561385784067539,0.01844412914984843,0.03263839978836279,-0.5153845976771339,-0.01139948292054571,0.4331708757265528,0.7750833657988229,0.4598682640424359,0.01141513217118469,-0.4331444994895677,-0.7750981060986231,-0.4598678758532431,3.7535594987173,-0.051811294894675,37.428661966483,37.614361237209,-122.35910653052,-8891791.004733311,-14035462.36446245,12716300.14217916,-8892746.23405792,-14034857.15897197,12716300.14217916,0.0038995358567577,23125.679561832,-0.31042948365211,7210.28,0,-0,-0,0,65865.3,-0,0,0,0,67155,-126597,0,-0,0,0,-0,11.4425,1,0.456229,0.0499435,0,0,0,0,-10,0,0,0,0,0,0,0,0,0,0,0,0,0,1,0,-19.4884474,-0.194884474,0.997854858,0.0654651211,-0.0893274909,0,0,0,0,0,0,0,0,0,0,0,0,0,0,0,0,0,0,0,0,0,0,0,0,0,0,0,0,0,0,0,0,0,0,0,0,0,0,0,0,0,0,0,0,0,0,0,0,0,0,0,0,0,0,0,0,94.4354,0,0,0,0,11.0231,11.0231
1.033333333,0,0,-0,0,0,0,0,0,0,-0.3316879447578666,-0.3880266286841662,0.01146326935715119,-0.3780482838911654,-15.91345606219919,0.002993008391164445,-0.3299465319886388,-0.3850882038642002,0.009057142885189558,255.0277226,22557708.24,670.322697945,694.453915383,668.352320699023,-0.2155784305664383,42.65208870832313,-4.598817366269322,-0.4911684359394019,-24.15054341663948,-4.504357430947216,-17.43349966975604,9.185860222475206,-2.392488042933707,0.005907210161499732,-51.67402098696164,668.9611141306455,-0.6972476353991223,42.69731849366229,621.8546666159266,-176.4130592258663,253.8531991779058,-401.5931038406763,472.0122921532515,253.853199177906,313.2775004961253,-591.8627493654814,-8.352564004297726,7099.386901579434,0,64275.53338359496,9.053673828,-2990.827212918659,7.384548882333771,-64597.21653581408,0,0,0,0,0,0,0,0,0,0,0,0,-2990.827212918659,7.384548882333771,-64597.21653581408,-487.6545929693784,-64082.05149345572,21.77303601097248,0,-57038.54671834968,0,0,0,0,0,0,0,0,0,0,0,0,0,-487.6545929693784,-64082.05149345572,21.77303601097248,0.001135140288,3.311330522e-007,0.0002917111267,445.2445881,2116.22,867.5752921,0,0,0,0,0.139854648096181,0.7649320729048601,1.19704191875846e-032, 58987.35479, 354.2790325,           0, 354.2790325, 230717.0769,           0,           0,           0, 290154.4317,1250.090767,450.491552589804,-0.09058989943417083,0,23126.206844799,23126.493776802,-0.1489721800525541,4.366120102432862,297.9015692720303,0.856127608962085,0.01853408557867953,0.03330467378867946,-0.5153569671096485,-0.01176571899421574,0.4328980600913236,0.7749491000899037,0.4603419703824174,0.01178306279656236,-0.4328688628579753,-0.7749654093758162,-0.4603415267713196,3.6520242764038,-0.059597197156229,37.428747798497,37.614447210458,-122.35931072644,-8891728.795470133,-14035479.91657102,12716325.47968565,-8892786.369673478,-14034809.86846671,12716325.47968565,0.0043173432699817,23126.493776802,-0.28692996501923,7099.39,0,-0,-0,0,64275.5,-0,0,0,0,67952.8,-124991,0,-0,0,0,-0,11.4425,1,0.446077,0.0492703,0,0,0,0,-10,0,0,0,0,0,0,0,0,0,0,0,0,0,1,0,-19.4884474,-0.194884474,0.997969304,0.0636966967,-0.088364981,0,0,0,0,0,0,0,0,0,0,0,0,0,0,0,0,0,0,0,0,0,0,0,0,0,0,0,0,0,0,0,0,0,0,0,0,0,0,0,0,0,0,0,0,0,0,0,0,0,0,0,0,0,0,0,0,94.4354,0,0,0,0,11.0231,11.0231
1.133333333,0,0,-0,0,0,0,0,0,0,-0.3690357768966335,-1.920344513364899,0.0115804314855956,-0.3632302551018596,-13.85045412011147,-0.002585302697075261,-0.3672981373098928,-1.917404677865106,0.009173300547062471,254.5380314,22535795.5,669.690579729,694.827466014,667.9211526334806,-0.2658164211682674,39.7532864431808,-3.702391457610256,-0.5203673482359865,-39.0589496500416,-3.328822029215493,-15.38832508662885,7.419802347327437,-2.590712771322219,0.006480318307548022,-48.72580116349282,668.5066746238987,-0.7917047438321296,39.79537366671544,621.4557699233631,-178.0689027298069,254.6947181163803,-401.989988372364,470.3548770754323,254.6947181163804,312.9644550117976,-591.3115561910619,-10.14662459708965,6852.496602326462,0,60611.58390464359,8.845182628,-3238.626115692191,8.100986084270534,-60911.6741550528,0,0,0,0,0,0,0,0,0,0,0,0,-3238.626115692191,8.100986084270534,-60911.6741550528,-459.8318512794932,-55774.70073481079,23.56559071266279,0,-49133.05747556983,0,0,0,0,0,0,0,0,0,0,0,0,0,-459.8318512794932,-55774.70073481079,23.56559071266279,0.001135100452,3.311308456e-007,0.00029171942,445.2409186,2116.22,867.5376967,0,0,0,0,0.189854648096181,0.7649320729048601,1.081247243476733e-032, 58987.35479, 354.2790325,           0, 354.2790325, 230717.0769,           0,           0,           0, 290154.4317,1250.090767,450.491552589804,-0.09058989943417083,0,23127.235980828,23127.500815503,-0.1832882345561412,4.275059529057617,297.9028747226358,0.8561639997449237,0.01786772095504838,0.03277891708818433,-0.5153537548938328,-0.01102325283970967,0.4332758516348455,0.7748155144537564,0.4602297717974058,0.01104227043801989,-0.4332438343498778,-0.7748334176104923,-0.4602293159017947,3.4067264183416,-0.067734790336234,37.428833544725,37.614533096286,-122.35951473154,-8891666.631018153,-14035497.6425527,12716350.90869225,-8892826.549897783,-14034762.75199183,12716350.90869225,0.0047351506832058,23127.500815503,-0.26483258977532,6852.5,0,-0,-0,0,60611.6,-0,0,0,0,70060.6,-119194,0,-0,0,0,-0,11.4425,1,0.421458,0.0476483,0,0,0,0,-10,0,0,0,0,0,0,0,0,0,0,0,0,0,1,0,-19.4884474,-0.194884474,0.998232859,0.0594235647,-0.0844282767,0,0,0,0,0,0,0,0,0,0,0,0,0,0,0,0,0,0,0,0,0,0,0,0,0,0,0,0,0,0,0,0,0,0,0,0,0,0,0,0,0,0,0,0,0,0,0,0,0,0,0,0,0,0,0,0,94.4354,0,0,0,0,11.0231,11.0231
1.233333333,0,0,-0,0,0,0,0,0,0,-0.4047061126451594,-3.205238839366099,0.0111458902612966,-0.3433352574516407,-10.62227171030609,-0.008085512538349637,-0.4029783872055427,-3.202297436057837,0.008733543926720419,254.0599764,22514339.36,669.074991162,695.187870793,667.5664664523159,-0.318225178759576,35.52166835572274,-3.163578345251644,-0.5310772220090322,-49.73695772585479,-1.682203901253645,-12.35790171827259,4.917876358091984,-2.839393562631424,0.006901365017281243,-44.45423892633535,668.1288052505277,-0.8883307458912865,35.55916564526672,621.2000129039346,-179.4673485334747,255.3197808156524,-402.2437454691271,468.9548550520453,255.3197808156526,312.6582212416995,-590.7772158314986,-11.57563242458298,6497.954246318631,0,55304.64996042279,8.511086392,-3549.499676868156,8.627332688634681,-55571.83364119981,0,0,0,0,0,0,0,0,0,0,0,0,-3549.499676868156,8.627332688634681,-55571.83364119981,-419.5205516299075,-42775.41759520461,25.85503293711238,0,-36716.01602027487,0,0,0,0,0,0,0,0,0,0,0,0,0,-419.5205516299075,-42775.41759520461,25.85503293711238,0.001135054344,3.311282916e-007,0.0002917290202,445.2366717,2116.22,867.4941821,0,0,0,0,0.239854648096181,0.7649320729048601,9.754887040395347e-033, 58987.35479, 354.2790325,           0, 354.2790325, 230717.0769,           0,           0,           0, 290154.4317,1250.090767,450.491552589804,-0.09058989943417083,0,23128.427214127,23128.668151835,-0.2212501413969256,4.038114988767838,297.9047464307495,0.8562404753848675,0.01651769808303772,0.03117966682567992,-0.5153709754529969,-0.009280392952370634,0.4342387515670265,0.7746792177726647,0.4595896979864676,0.009301059792052225,-0.4342039153200071,-0.7746987438560447,-0.4595892802006891,3.0465228691019,-0.076071618543837,37.428919205987,37.614618895565,-122.35971854933,-8891604.499672793,-14035515.52203902,12716376.41161401,-8892866.763028231,-14034715.7891789,12716376.41161401,0.0051529580964298,23128.668151835,-0.24093557149172,6497.95,0,-0,-0,0,55304.6,-0,0,0,0,73210.4,-109926,0,-0,0,0,-0,11.4425,1,0.38528,0.0452681,0,0,0,0,-10,0,0,0,0,0,0,0,0,0,0,0,0,0,1,0,-19.4884474,-0.194884474,0.99858671,0.0531468034,-0.0780105349,0,0,0,0,0,0,0,0,0,0,0,0,0,0,0,0,0,0,0,0,0,0,0,0,0,0,0,0,0,0,0,0,0,0,0,0,0,0,0,0,0,0,0,0,0,0,0,0,0,0,0,0,0,0,0,0,94.4354,0,0,0,0,11.0231,11.0231
1.333333333,0,0,-0,0,0,0,0,0,0,-0.4382600705893039,-4.137293043105979,0.01018760450912791,-0.3204112598201144,-6.579756828514979,-0.01285418904830733,-0.4365472417431367,-4.134349917706365,0.007766750593588384,253.6009313,22493678.41,668.485204963,695.523459313,667.2521308788195,-0.3710119639131335,30.40234203732817,-2.988752190674437,-0.5245916425669228,-55.41497313214028,0.2640822618967214,-8.663239840743273,1.941982794517312,-3.071182807983778,0.007159984104147426,-39.30828291550564,667.7913262037247,-0.9853308160052676,30.43424098317345,621.1262375677015,-180.5250301997779,255.6673481917877,-402.315517183551,467.8955844154424,255.6673481917878,312.3657652341186,-590.2715244420116,-12.53005810699671,6072.441506102201,0,48913.17860438882,8.054944384,-3839.257272401062,8.950630021327344,-49138.92154405111,0,0,0,0,0,0,0,0,0,0,0,0,-3839.257272401062,8.950630021327344,-49138.92154405111,-370.9574819099668,-26497.00290873941,28.00720734118609,0,-21139.02857021363,0,0,0,0,0,0,0,0,0,0,0,0,0,-370.9574819099668,-26497.00290873941,28.00720734118609,0.001135003603,3.311254812e-007,0.0002917395861,445.2319983,2116.22,867.4462966,0,0,0,0,0.289854648096181,0.7649320729048601,8.811192962322093e-033, 58987.35479, 354.2790325,           0, 354.2790325, 230717.0769,           0,           0,           0, 290154.4317,1250.090767,450.491552589804,-0.09058989943417083,0,23129.738177612,23129.958223619,-0.2626810523675274,3.683792410233002,297.9072159068198,0.8563430837944018,0.01461348231668368,0.02871887067873012,-0.5154010044994213,-0.006730428312587918,0.4356692206453134,0.7745331731452301,0.4585252394521108,0.006752719096469268,-0.4356315668973804,-0.7745543518970421,-0.4585249117165724,2.6094196151333,-0.084452605988424,37.429004785131,37.614704611229,-122.35992218773,-8891542.385029996,-14035533.524842,12716401.96352579,-8892906.992661197,-14034668.94984083,12716401.96352579,0.0055707655096539,23129.958223619,-0.22004415467381,6072.44,0,-0,-0,0,48913.2,-0,0,0,0,77053.3,-98192.3,0,-0,0,0,-0,11.4425,1,0.341371,0.0423803,0,0,0,0,-10,0,0,0,0,0,0,0,0,0,0,0,0,0,1,0,-19.4884474,-0.194884474,0.998963098,0.0455272216,-0.0698094317,0,0,0,0,0,0,0,0,0,0,0,0,0,0,0,0,0,0,0,0,0,0,0,0,0,0,0,0,0,0,0,0,0,0,0,0,0,0,0,0,0,0,0,0,0,0,0,0,0,0,0,0,0,0,0,0,94.4354,0,0,0,0,11.0231,11.0231
1.433333333,0,0,-0,0,0,0,0,0,0,-0.469470721804945,-4.648419744872403,0.008797256413453705,-0.2966565244228258,-2.130260617414158,-0.01627342238950625,-0.4677762220291267,-4.645474747945608,0.006365802719588793,253.1662533,22474064.83,667.927772755,695.826011695,666.9455994216174,-0.4226111251253997,24.90003453149683,-3.084305450561887,-0.5048870690796081,-55.81414677161832,2.324707801906824,-4.674253697932596,-1.220027362603293,-3.234553372165343,0.007273282670632562,-33.79412032408106,667.4616431070554,-1.08113756407527,24.92580470640413,621.2552281109877,-181.1935932526712,255.7042468574754,-402.1845041269508,467.2254120731269,255.7042468574754,312.092332743063,-589.8027940717873,-12.94846924541751,5617.208687853464,0,42065.39545867818,7.488665242,-4043.485306303775,9.092263513218448,-42245.71780010761,0,0,0,0,0,0,0,0,0,0,0,0,-4043.485306303775,9.092263513218448,-42245.71780010761,-318.919597829558,-8579.780945830265,29.53351370323576,0,-3973.422792799509,0,0,0,0,0,0,0,0,0,0,0,0,0,-318.919597829558,-8579.780945830265,29.53351370323576,0.001134950201,3.311225235e-007,0.000291750707,445.2270799,2116.22,867.3959014,0,0,0,0,0.339854648096181,0.7649320729048601,7.949291007889586e-033, 58987.35479, 354.2790325,           0, 354.2790325, 230717.0769,           0,           0,           0, 290154.4317,1250.090767,450.491552589804,-0.09058989943417083,0,23131.117920932,23131.307264074,-0.3073747730570928,3.249944782936264,297.9102341067123,0.8564551789367755,0.01232686801351678,0.02567818424672729,-0.5154349674315318,-0.003629937481661863,0.4374120620416125,0.774369740246513,0.4571750397002572,0.003653829516273896,-0.437371592759729,-0.7743925984123073,-0.4571748493748519,2.1386698247868,-0.092741534445138,37.429090286704,37.61479024876,-122.36012565819,-8891480.267696193,-14035551.61415123,12716427.53477655,-8892947.219401959,-14034622.19716886,12716427.53477655,0.0059885729228779,23131.307264074,-0.18934139981866,5617.21,0,-0,-0,0,42065.4,-0,0,0,0,81195.3,-85168.7,0,-0,0,0,-0,11.4425,1,0.294084,0.0392705,0,0,0,0,-10,0,0,0,0,0,0,0,0,0,0,0,0,0,1,0,-19.4884474,-0.194884474,0.999303435,0.0373181628,-0.0606542976,0,0,0,0,0,0,0,0,0,0,0,0,0,0,0,0,0,0,0,0,0,0,0,0,0,0,0,0,0,0,0,0,0,0,0,0,0,0,0,0,0,0,0,0,0,0,0,0,0,0,0,0,0,0,0,0,94.4354,0,0,0,0,11.0231,11.0231
1.533333333,0,0,-0,0,0,0,0,0,0,-0.4983310579185775,-4.712031950090908,0.007125319963783284,-0.2742085050033392,2.302220439489296,-0.01783625752537279,-0.4966565195272883,-4.709084938836238,0.004682504110010814,252.758868,22455644.27,667.406017758,696.092229893,666.6257397460366,-0.4719607031266264,19.53042730296428,-3.30806419574435,-0.4780757756038894,-51.14696393398408,4.315620638156842,-0.7716227699319695,-4.280538294645265,-3.307723720269716,0.007284944899035591,-28.42615283080433,667.1185876841568,-1.17468783878565,19.55000293832958,621.5891339146579,-181.4627064788003,255.4263637020601,-401.8485443529141,466.9546630636416,255.4263637020601,311.8406636856345,-589.3747296270036,-12.82052177923032,5174.107700222377,0,35398.89890207975,6.841546592,-4134.954882896076,9.106842357269132,-35535.27119855707,0,0,0,0,0,0,0,0,0,0,0,0,-4134.954882896076,9.106842357269132,-35535.27119855707,-268.2613762898172,9268.900643828541,30.22244235018203,0,13143.56995303875,0,0,0,0,0,0,0,0,0,0,0,0,0,-268.2613762898172,9268.900643828541,30.22244235018203,0.00113489625,3.311195353e-007,0.0002917619432,445.2221108,2116.22,867.3449886,0,0,0,0,0.389854648096181,0.7649320729048601,7.180207676102132e-033, 58987.35479, 354.2790325,           0, 354.2790325, 230717.0769,           0,           0,           0, 290154.4317,1250.090767,450.491552589804,-0.09058989943417083,0,23132.511904279,23132.67034726,-0.3551138676330913,2.779864047280409,297.913658893561,0.8565615513368375,0.00985429664298761,0.02237997625249613,-0.5154651668852511,-0.0002723064631590102,0.4392916414951149,0.774183697099719,0.4556998822764034,0.0002977829183142303,-0.4392483591284139,-0.7742082550228059,-0.4556998663406336,1.6785803757911,-0.10084519522938,37.429175716352,37.614875814019,-122.36032897422,-8891418.127132682,-14035569.75021761,12716453.0938514,-8892987.422709279,-14034575.49141626,12716453.0938514,0.006406380336102,23132.67034726,-0.15844145789742,5174.11,0,-0,-0,0,35398.9,-0,0,0,0,85235.2,-72091.6,0,-0,0,0,-0,11.4425,1,0.247876,0.036231,0,0,0,0,-10,0,0,0,0,0,0,0,0,0,0,0,0,0,1,0,-19.4884474,-0.194884474,0.999570881,0.0292925636,-0.0514240085,0,0,0,0,0,0,0,0,0,0,0,0,0,0,0,0,0,0,0,0,0,0,0,0,0,0,0,0,0,0,0,0,0,0,0,0,0,0,0,0,0,0,0,0,0,0,0,0,0,0,0,0,0,0,0,0,94.4354,0,0,0,0,11.0231,11.0231
1.633333333,0,0,-0,0,0,0,0,0,0,-0.5250410589497572,-4.343567267293095,0.005367092617331013,-0.2549606818477057,6.316575109171272,-0.01721427479999384,-0.523386226976407,-4.340618106921924,0.002913465159954795,252.3791664,22438449.55,666.919941433,696.324032076,666.2852109399879,-0.5186530388566837,14.7728245398599,-3.528801192277026,-0.4515464893693817,-42.07666759291807,6.067508333613702,2.6908153668825,-6.976177848064582,-3.300957715382142,0.007258784244844373,-23.67967668050629,666.7548010153283,-1.265573438736181,14.78654550906586,622.112239368563,-181.3592591411124,254.8574864468023,-401.3233451003587,467.056444065041,254.8574864468024,311.610733538614,-588.9862092486288,-12.1853896803491,4781.80418081734,0,29502.97823521252,6.169842411,-4126.496762655826,9.074139165002846,-29601.74518670978,0,0,0,0,0,0,0,0,0,0,0,0,-4126.496762655826,9.074139165002846,-29601.74518670978,-223.4682510229354,25433.85252025413,30.16215653136509,0,28661.54629338235,0,0,0,0,0,0,0,0,0,0,0,0,0,-223.4682510229354,25433.85252025413,30.16215653136509,0.001134843803,3.311166302e-007,0.0002917728671,445.2172801,2116.22,867.2954956,0,0,0,0,0.439854648096181,0.7649320729048601,6.477782826327856e-033, 58987.35479, 354.2790325,           0, 354.2790325, 230717.0769,           0,           0,           0, 290154.4317,1250.090767,450.491552589804,-0.09058989943417083,0,23133.867073954,23133.99602123,-0.4056863001626024,2.318090794198821,297.9172565326354,0.8566514387097871,0.007397859235730045,0.01915614755596051,-0.515486785714236,0.003040689698834503,0.4411296698943778,0.773974164699033,0.4542679395725248,-0.003013637005333199,-0.4410835771918136,-0.7740004336008876,-0.4542681198469817,1.2704337508803,-0.10872678370871,37.429261080097,37.614961313681,-122.3605321498,-8891355.943495736,-14035587.89414984,12716478.61024726,-8893027.582735812,-14034528.79369459,12716478.61024726,0.006824187749326,23133.99602123,-0.12894587218761,4781.8,0,-0,-0,0,29503,-0,0,0,0,88801.3,-60139.7,0,-0,0,0,-0,11.4425,1,0.206902,0.0335343,0,0,0,0,-10,0,0,0,0,0,0,0,0,0,0,0,0,0,1,0,-19.4884474,-0.194884474,0.999754184,0.022171435,-0.0429630727,0,0,0,0,0,0,0,0,0,0,0,0,0,0,0,0,0,0,0,0,0,0,0,0,0,0,0,0,0,0,0,0,0,0,0,0,0,0,0,0,0,0,0,0,0,0,0,0,0,0,0,0,0,0,0,0,94.4354,0,0,0,0,11.0231,11.0231
1.733333333,0,0,-0,0,0,0,0,0,0,-0.5499777387336523,-3.596756022617988,0.003744094359477855,-0.2404184026130926,9.569548405245552,-0.01430525777053282,-0.5483405579182841,-3.593804587148413,0.001281378155523546,252.0250704,22422402.03,666.466348167,696.527676019,665.927307448252,-0.5630474505409495,11.02845887053621,-3.672451905933789,-0.433003664164891,-29.63187902404469,7.437560135837041,5.418901470485704,-9.088424775821089,-3.247784427931715,0.007269369137421766,-19.94982686834829,666.3735774010212,-1.354153785353988,11.03697642264916,622.7931220212059,-180.9428840337565,254.0456717634301,-400.6403256916388,467.471120841421,254.0456717634301,311.3998693597854,-588.6318580332051,-11.12563723365132,4472.481036685505,0,24868.43842698621,5.560322833,-4060.025326956578,9.087371241484812,-24939.09437378332,0,0,0,0,0,0,0,0,0,0,0,0,-4060.025326956578,9.087371241484812,-24939.09437378332,-188.2691634109271,38532.86421281392,29.65891037220793,0,41252.1552245431,0,0,0,0,0,0,0,0,0,0,0,0,0,-188.2691634109271,38532.86421281392,29.65891037220793,0.001134794675,3.311139088e-007,0.0002917831005,445.2127548,2116.22,867.2491351,0,0,0,0,0.489854648096181,0.7649320729048601,5.851002664720112e-033, 58987.35479, 354.2790325,           0, 354.2790325, 230717.0769,           0,           0,           0, 290154.4317,1250.090767,450.491552589804,-0.09058989943417083,0,23135.136526925,23135.235780465,-0.4589006089962615,1.906302176624973,297.9207187374996,0.8567196858709943,0.00514662461065298,0.01631744786447674,-0.5154984316090708,0.006026779848661383,0.4427617699157658,0.7737448417626648,0.4530393060997943,-0.005998148509075009,-0.4427128696497511,-0.773772822021913,-0.4530396860774897,0.94888869170467,-0.11641600556559,37.429346383578,37.615046753787,-122.36073519773,-8891293.699319022,-14035606.01143386,12716504.05708818,-8893067.682011051,-14034482.06949295,12716504.05708818,0.00724199516255,23135.235780465,-0.099252209067345,4472.48,0,-0,-0,0,24868.4,-0,0,0,0,91582.6,-50330.4,0,-0,0,0,-0,11.4425,1,0.174645,0.0314092,0,0,0,0,-10,0,0,0,0,0,0,0,0,0,0,0,0,0,1,0,-19.4884474,-0.194884474,0.999862866,0.0165604749,-0.0360059702,0,0,0,0,0,0,0,0,0,0,0,0,0,0,0,0,0,0,0,0,0,0,0,0,0,0,0,0,0,0,0,0,0,0,0,0,0,0,0,0,0,0,0,0,0,0,0,0,0,0,0,0,0,0,0,0,94.4354,0,0,0,0,11.0231,11.0231
1.833333333,0,0,-0,0,0,0,0,0,0,-0.5736527412463869,-2.557108246887969,0.00247987954557557,-0.2316026339344041,11.80378539528627,-0.009258661620688904,-0.5720296095201722,-2.554154419247121,1.074019713605284e-005,251.6923821,22407325.88,666.039339946,696.712040592,665.5594573830559,-0.606237912963735,8.587894778467614,-3.740085616241826,-0.4295351277636199,-15.09761344753058,8.319554517737155,7.202898695991157,-10.45992522496366,-3.189419354757435,0.007391543557694533,-17.52025067741664,665.9823578340514,-1.441523500962974,8.592055578645828,623.5877353081498,-180.2987343835241,253.058037333499,-399.8435352467232,468.1135416066072,253.0580373334989,311.2033250088851,-588.3033101193529,-9.757898297672758,4269.282004903,0,21848.64698584759,5.117639678,-3987.063687859074,9.240100356246151,-21901.90360948282,0,0,0,0,0,0,0,0,0,0,0,0,-3987.063687859074,9.240100356246151,-21901.90360948282,-165.3409305030252,47529.6297603511,29.0914582646505,0,49917.75375284195,0,0,0,0,0,0,0,0,0,0,0,0,0,-165.3409305030252,47529.6297603511,29.0914582646505,0.001134750292,3.311114499e-007,0.0002917923461,445.2086661,2116.22,867.2072516,0,0,0,0,0.539854648096181,0.7649320729048601,5.278547281523387e-033, 58987.35479, 354.2790325,           0, 354.2790325, 230717.0769,           0,           0,           0, 290154.4317,1250.090767,450.491552589804,-0.09058989943417083,0,23136.283423467,23136.354386809,-0.5146002783130177,1.579685637599521,297.9236938996195,0.8567660157813345,0.003260162914669517,0.01412636846974697,-0.5155015143079647,0.008447769708092238,0.444051207184632,0.773502594257531,0.4521514096646159,-0.008417545905205394,-0.4439995018854792,-0.7735322748604003,-0.4521519733404623,0.73915052865305,-0.12400660471906,37.429431631405,37.615132138998,-122.36093812841,-8891231.380945694,-14035624.07487383,12716529.41331686,-8893107.706873931,-14034435.29161864,12716529.41331686,0.0076598025757741,23136.354386809,-0.070962343364954,4269.28,0,-0,-0,0,21848.6,-0,0,0,0,93354.2,-43436.4,0,-0,0,0,-0,11.4425,1,0.153641,0.0300218,0,0,0,0,-10,0,0,0,0,0,0,0,0,0,0,0,0,0,1,0,-19.4884474,-0.194884474,0.999916788,0.0129002526,-0.0311151344,0,0,0,0,0,0,0,0,0,0,0,0,0,0,0,0,0,0,0,0,0,0,0,0,0,0,0,0,0,0,0,0,0,0,0,0,0,0,0,0,0,0,0,0,0,0,0,0,0,0,0,0,0,0,0,0,94.4354,0,0,0,0,11.0231,11.0231
1.933333333,0,0,-0,0,0,0,0,0,0,-0.596661042604966,-1.332339682190162,0.001775618915313166,-0.2289966242426018,12.86602003139126,-0.002469033395984282,-0.5950472066620601,-1.329383353616304,-0.0006966186071082305,251.3752408,22392967.51,665.630944961,696.886617693,665.1861728586542,-0.6499806036459006,7.610268076737896,-3.794727842942528,-0.4468603723786016,0.1167958385533794,8.651747065200501,7.931903601099126,-11.00546170742264,-3.158542310158566,0.007691676893714854,-16.54388570051344,665.5856733151979,-1.529439781169123,7.610990801271406,624.4436068695404,-179.5280498802484,251.9738459960727,-398.9854541177865,468.8824709388265,251.9738459960728,311.014998200769,-587.9907112358859,-8.220560310653861,4184.693957112007,0,20634.8589019655,4.931031782,-3948.464579490046,9.615294268510358,-20681.35876651588,0,0,0,0,0,0,0,0,0,0,0,0,-3948.464579490046,9.615294268510358,-20681.35876651588,-156.1268446566494,51806.98918723789,28.75915737392401,0,54062.02829015147,0,0,0,0,0,0,0,0,0,0,0,0,0,-156.1268446566494,51806.98918723789,28.75915737392401,0.001134711581,3.311093051e-007,0.0002918004104,445.2050995,2116.22,867.1707206,0,0,0,0,0.5898546480961812,0.7649320729048601,4.767740080151277e-033, 58987.35479, 354.2790325,           0, 354.2790325, 230717.0769,           0,           0,           0, 290154.4317,1250.090767,450.491552589804,-0.09058989943417083,0,23137.283773273,23137.31503375,-0.5726768753224237,1.364057430890972,297.925829183685,0.8567930238969987,0.001855465624160645,0.01277558471129742,-0.5154988417872916,0.01012901755350727,0.4448990776570855,0.7732550125433527,0.4517066517994337,-0.0100971765254738,-0.4448445694618678,-0.7732863717561764,-0.4517073646761446,0.65515028740521,-0.13165031201203,37.429516826682,37.615217473195,-122.36114094906,-8891168.97957835,-14035642.06667238,12716554.66524947,-8893147.648523366,-14034388.44227716,12716554.66524947,0.0080776099889981,23137.31503375,-0.0312594845891,4184.69,0,-0,-0,0,20634.9,-0,0,0,0,93992.6,-39930.6,0,-0,0,0,-0,11.4425,1,0.145288,0.0294641,0,0,0,0,-10,0,0,0,0,0,0,0,0,0,0,0,0,0,1,0,-19.4884474,-0.194884474,0.999934626,0.0114342804,-0.0286398677,0,0,0,0,0,0,0,0,0,0,0,0,0,0,0,0,0,0,0,0,0,0,0,0,0,0,0,0,0,0,0,0,0,0,0,0,0,0,0,0,0,0,0,0,0,0,0,0,0,0,0,0,0,0,0,0,94.4354,0,0,0,0,11.0231,11.0231
2.033333333,0,0,-0,0,0,0,0,0,0,-0.6196269327536266,-0.04192992389210128,0.001785904886369543,-0.2325337863165312,12.71566908341158,0.005456540210000754,-0.618016982396645,-0.03897099271700041,-0.0006857523721450251,251.0667662,22379023.77,665.231981564,697.059764759,664.8044424943415,-0.6965122113140865,8.115152020806931,-3.925003228674775,-0.488786763047248,14.6061814954832,8.421934599529068,7.597631326717035,-10.71701087474404,-3.168150080664375,0.008221356629844946,-17.0360772373595,665.1805308593627,-1.620140490005305,8.113310459931993,625.3044545257128,-178.7381013850952,250.8771530251673,-398.1223770908424,469.6706447408839,250.8771530251674,310.8282556259311,-587.6842006108835,-6.660588463578895,4219.932258969247,0,21246.75594281447,5.034857111,-3960.475164691975,10.27744201617764,-21296.6428623822,0,0,0,0,0,0,0,0,0,0,0,0,-3960.475164691975,10.27744201617764,-21296.6428623822,-160.7717215015189,51201.53317356706,28.77762838985067,0,53523.66118061132,0,0,0,0,0,0,0,0,0,0,0,0,0,-160.7717215015189,51201.53317356706,28.77762838985067,0.001134678914,3.311074947e-007,0.0002918072159,445.2020892,2116.22,867.1398921,0,0,0,0,0.6398546480961812,0.7649320729048601,4.30120589310096e-033, 58987.35479, 354.2790325,           0, 354.2790325, 230717.0769,           0,           0,           0, 290154.4317,1250.090767,450.491552589804,-0.09058989943417083,0,23138.127978696,23138.128949974,-0.6330807604999775,1.273990998586091,297.9268177532806,0.8568038429666253,0.000998468727333765,0.01237395129482607,-0.5154930291159876,0.01097202704985542,0.4452504038793669,0.7730078524934242,0.4517638237521709,-0.01093853482988474,-0.4451930945572332,-0.7730408596767632,-0.4517646359383842,0.6988108871229,-0.13954125272779,37.429601970755,37.615302757171,-122.36134366345,-8891106.491904736,-14035659.97955077,12716579.80744142,-8893187.503644463,-14034341.5141921,12716579.80744142,0.0084954174022222,23138.128949974,-0.00097061321139336,4219.93,0,-0,-0,0,21246.8,-0,0,0,0,93482.4,-39958.8,0,-0,0,0,-0,11.4425,1,0.14978,0.0297487,0,0,0,0,-10,0,0,0,0,0,0,0,0,0,0,0,0,0,1,0,-19.4884474,-0.194884474,0.999925623,0.0121962484,-0.0286952719,0,0,0,0,0,0,0,0,0,0,0,0,0,0,0,0,0,0,0,0,0,0,0,0,0,0,0,0,0,0,0,0,0,0,0,0,0,0,0,0,0,0,0,0,0,0,0,0,0,0,0,0,0,0,0,0,94.4354,0,0,0,0,11.0231,11.0231
2.133333333,0,0,-0,0,0,0,0,0,0,-0.6431486994394113,1.194491209390126,0.002599997157363923,-0.2416197246891344,11.42260868318831,0.01376128049882636,-0.6415371080365383,1.197452839421176,0.0001326455075447263,250.7596977,22365170.32,664.832905342,697.237632762,664.403043859837,-0.7483656171675648,9.987517235428783,-4.201367026871558,-0.5569112444619029,27.09817755616795,7.668514455751662,6.28804557796072,-9.662019814212924,-3.208869611898991,0.009014151301117471,-18.88007335547903,664.7557218517436,-1.716159620720654,9.983841317879088,626.1153861152827,-178.0319576655582,249.8488780410889,-397.3092121807678,470.375002843208,249.8488780410887,310.6365825903266,-587.3749945592097,-5.219632651132674,4365.371592841162,0,23538.90462393424,5.39218807,-4011.378274729861,11.2685073149581,-23601.80538425028,0,0,0,0,0,0,0,0,0,0,0,0,-4011.378274729861,11.2685073149581,-23601.80538425028,-178.1737575583914,45994.64848176097,29.05384094511001,0,48568.12513973621,0,0,0,0,0,0,0,0,0,0,0,0,0,-178.1737575583914,45994.64848176097,29.05384094511001,0.001134652098,3.311060083e-007,0.0002918128022,445.1996175,2116.22,867.1145854,0,0,0,0,0.6898546480961814,0.7649320729048601,3.88445749159612e-033, 58987.35479, 354.2790325,           0, 354.2790325, 230717.0769,           0,           0,           0, 290154.4317,1250.090767,450.491552589804,-0.09058989943417083,0,23138.820967897,23138.786646379,-0.6958268416875941,1.312019963248433,297.9264451109219,0.8568004154305973,0.0007004670702361209,0.01294053180096675,-0.5154853054166988,0.01095975010177386,0.4450963750873271,0.7727632345634399,0.4523340403605258,-0.01092456636902101,-0.4450362662382847,-0.7727978529612483,-0.4523348914696057,0.86044985817137,-0.14790003871266,37.429687063151,37.615387990904,-122.36154627213,-8891043.920208184,-14035677.81681962,12716604.84275126,-8893227.27451935,-14034294.51067557,12716604.84275126,0.0089132248154462,23138.786646379,0.034322038292885,4365.37,0,-0,-0,0,23538.9,-0,0,0,0,91912.1,-43344,0,-0,0,0,-0,11.4425,1,0.166142,0.0308117,0,0,0,0,-10,0,0,0,0,0,0,0,0,0,0,0,0,0,1,0,-19.4884474,-0.194884474,0.999887237,0.0150171186,-0.0311644036,0,0,0,0,0,0,0,0,0,0,0,0,0,0,0,0,0,0,0,0,0,0,0,0,0,0,0,0,0,0,0,0,0,0,0,0,0,0,0,0,0,0,0,0,0,0,0,0,0,0,0,0,0,0,0,0,94.4354,0,0,0,0,11.0231,11.0231
2.233333333,0,0,-0,0,0,0,0,0,0,-0.667748318474005,2.267538511767024,0.004228732468875635,-0.2551917824167387,9.156213785013803,0.02161638564389947,-0.666129970214483,2.27050293345284,0.001769168191598351,250.4470959,22351093.2,664.424724815,697.423891456,663.9659753329687,-0.8081243080287948,12.99419949255847,-4.641558812436419,-0.6505135401819457,36.55693904098509,6.476977769089194,4.172987872230507,-7.975094091349535,-3.254835652555953,0.01008418830427138,-21.84326272034768,664.2952527737627,-1.82008150931329,12.98920287163782,626.8277076545585,-177.4996576154478,248.9597976321567,-396.594670818314,470.9055159229703,248.9597976321567,310.434114903623,-587.0560485060191,-4.021803291164728,4601.902806203062,0,27221.2982515247,5.915226679,-4068.839997756235,12.60615069307856,-27306.06105050352,0,0,0,0,0,0,0,0,0,0,0,0,-4068.839997756235,12.60615069307856,-27306.06105050352,-206.1377687968591,36868.38102312763,29.34177557495979,0,39845.75964271454,0,0,0,0,0,0,0,0,0,0,0,0,0,-206.1377687968591,36868.38102312763,29.34177557495979,0.001134630426,3.311048066e-007,0.0002918173169,445.1976193,2116.22,867.0941313,0,0,0,0,0.7398546480961814,0.7649320729048601,3.503611692835458e-033, 58987.35479, 354.2790325,           0, 354.2790325, 230717.0769,           0,           0,           0, 290154.4317,1250.090767,450.491552589804,-0.09058989943417083,0,23139.381061983,23139.30964701,-0.7609931483421588,1.468985548070377,297.9246276742442,0.8567829482944608,0.0009197183288903864,0.0144071739311738,-0.5154750886021203,0.01015416491878454,0.4444727608321883,0.7725191463136735,0.4533817667174184,-0.01011724663469764,-0.4444098541926162,-0.7725553365549241,-0.4533825920539277,1.1201821400621,-0.1569524964703,37.4297721017,37.615473171847,-122.36174877288,-8890981.271995951,-14035695.59151859,12716629.78168591,-8893266.96865575,-14034247.44476788,12716629.78168591,0.0093310322286702,23139.30964701,0.071415312588215,4601.9,0,-0,-0,0,27221.3,-0,0,0,0,89461.8,-49616,0,-0,0,0,-0,11.4425,1,0.192373,0.0325217,0,0,0,0,-10,0,0,0,0,0,0,0,0,0,0,0,0,0,1,0,-19.4884474,-0.194884474,0.999808888,0.0195496211,-0.035718514,0,0,0,0,0,0,0,0,0,0,0,0,0,0,0,0,0,0,0,0,0,0,0,0,0,0,0,0,0,0,0,0,0,0,0,0,0,0,0,0,0,0,0,0,0,0,0,0,0,0,0,0,0,0,0,0,94.4354,0,0,0,0,11.0231,11.0231
2.333333333,0,0,-0,0,0,0,0,0,0,-0.6938269674988858,3.087759995849979,0.006600864707010201,-0.27181420710517,6.165489554713443,0.02821267627615661,-0.6921976181695814,3.09072730058161,0.004152063602953511,250.1229194,22336515.21,663.99974214,697.620140665,663.4783575651785,-0.8782147117317436,16.810473744158,-5.197598312231019,-0.7666390606737356,42.26984988810803,4.971390654283626,1.483753088238021,-5.843326975296817,-3.275266148116376,0.01142595636512052,-25.60307123330306,663.7842478081212,-1.934333011000183,16.80441251487244,627.4034055507685,-177.2108152865817,248.264283194221,-396.0167837792932,471.1925794207011,248.2642831942209,310.2159209803779,-586.7222273348739,-3.162999758143098,4903.100283742554,0,31892.29101704366,6.504515342,-4094.379971624024,14.28348255756382,-32006.16295869172,0,0,0,0,0,0,0,0,0,0,0,0,-4094.379971624024,14.28348255756382,-32006.16295869172,-241.6195806436803,24825.42818370935,29.35168916873903,0,28315.29313024897,0,0,0,0,0,0,0,0,0,0,0,0,0,-241.6195806436803,24825.42818370935,29.35168916873903,0.00113461276,3.311038267e-007,0.0002918209969,445.1959898,2116.22,867.077457,0,0,0,0,0.7898546480961816,0.7649320729048601,3.163780338888651e-033, 58987.35479, 354.2790325,           0, 354.2790325, 230717.0769,           0,           0,           0, 290154.4317,1250.090767,450.491552589804,-0.09058989943417083,0,23139.837639827,23139.725730298,-0.8287107106497932,1.72538979810227,297.9214387492285,0.856750619903457,0.001567602536414949,0.01662858888886174,-0.5154603844612065,0.00868708474661151,0.4434550677678216,0.772270299216634,0.4548304325542566,-0.00864839016399126,-0.4433893655183856,-0.7723080232176254,-0.4548311699592041,1.45019455417,-0.16691162274303,37.429857082745,37.615558296181,-122.36195116142,-8890918.559136242,-14035713.32471151,12716654.64104326,-8893306.597924097,-14034200.3375325,12716654.64104326,0.0097488396418943,23139.725730298,0.11190975084901,4903.1,0,-0,-0,0,31892.3,-0,0,0,0,86382.3,-58067,0,-0,0,0,-0,11.4425,1,0.225675,0.0346952,0,0,0,0,-10,0,0,0,0,0,0,0,0,0,0,0,0,0,1,0,-19.4884474,-0.194884474,0.999679702,0.0253079674,-0.041856531,0,0,0,0,0,0,0,0,0,0,0,0,0,0,0,0,0,0,0,0,0,0,0,0,0,0,0,0,0,0,0,0,0,0,0,0,0,0,0,0,0,0,0,0,0,0,0,0,0,0,0,0,0,0,0,0,94.4354,0,0,0,0,11.0231,11.0231
2.433333333,0,0,-0,0,0,0,0,0,0,-0.7216327173688888,3.59245556391725,0.009567249214924502,-0.2898118872757352,2.75346047917011,0.03284617653225648,-0.7199893435610013,3.59542584366489,0.007131461005163134,249.7825544,22321220.31,663.552221943,697.826661062,662.9326459687733,-0.9606716072315749,21.05353376979193,-5.767723481564142,-0.9003197982324676,43.89474660050234,3.301667898903634,-1.510645521680271,-3.486896294371221,-3.247108777894517,0.01301400883090092,-29.77977968023234,663.2151633439647,-2.060948804959032,21.04639745679266,627.8182899195252,-177.2097793239512,247.7961618823925,-395.5997560964942,471.1918530684089,247.7961618823925,309.9782229805292,-586.3702396482372,-2.703811752667015,5237.940353656841,0,37079.94823470289,7.07910853,-4059.180703083272,16.26869228273953,-37227.42762515402,0,0,0,0,0,0,0,0,0,0,0,0,-4059.180703083272,16.26869228273953,-37227.42762515402,-281.0357324882016,11086.00825214915,28.86950246128774,0,15145.18569514797,0,0,0,0,0,0,0,0,0,0,0,0,0,-281.0357324882016,11086.00825214915,28.86950246128774,0.001134597658,3.311029887e-007,0.0002918241426,445.1945964,2116.22,867.0632019,0,0,0,0,0.8398546480961816,0.7649320729048601,2.853403572409009e-033, 58987.35479, 354.2790325,           0, 354.2790325, 230717.0769,           0,           0,           0, 290154.4317,1250.090767,450.491552589804,-0.09058989943417083,0,23140.227956932,23140.089777919,-0.8991455430797974,2.053643166938156,297.9171175857715,0.8567031056462794,0.002518830222776277,0.01939910987051049,-0.5154387633915019,0.006744948817325819,0.4421506344772235,0.7720099382882157,0.4565719847746529,-0.006704441389904778,-0.4420821394499259,-0.7720491631779431,-0.4565725813945286,1.8176080297596,-0.17795714379057,37.429942001435,37.615643358487,-122.362153432,-8890855.796632439,-14035731.04319477,12716679.44206382,-8893346.177331617,-14034153.21576458,12716679.44206382,0.010166647055118,23140.089777919,0.13817900791764,5237.94,0,-0,-0,0,37079.9,-0,0,0,0,82969.6,-67824.4,0,-0,0,0,-0,11.4425,1,0.262741,0.037115,0,0,0,0,-10,0,0,0,0,0,0,0,0,0,0,0,0,0,1,0,-19.4884474,-0.194884474,0.99949686,0.031717924,-0.0489566003,0,0,0,0,0,0,0,0,0,0,0,0,0,0,0,0,0,0,0,0,0,0,0,0,0,0,0,0,0,0,0,0,0,0,0,0,0,0,0,0,0,0,0,0,0,0,0,0,0,0,0,0,0,0,0,0,94.4354,0,0,0,0,11.0231,11.0231
2.533333333,0,0,-0,0,0,0,0,0,0,-0.7512416509051385,3.750396123335515,0.01291461118554597,-0.3074311875507427,-0.7530424132356867,0.03499643463730118,-0.74958266069925,3.753369472457554,0.01049319632028048,249.4231288,22305068.82,663.078770867,698.043159956,662.3326742910444,-1.056975562776813,25.31998608161442,-6.228037283866606,-1.04495444506175,41.47813566417682,1.627869241905763,-4.528592244520734,-1.136710062484344,-3.164149355315299,0.01480293912556752,-33.97367596697291,662.5918330481616,-2.201408786692173,25.31151817129893,628.0639349525266,-177.5129852766676,247.5663281460795,-395.3520250854994,470.8869076063834,247.5663281460795,309.7184909650191,-585.9984146451308,-2.665466898107209,5573.832697924995,0,42288.23216820612,7.586921686,-3955.473894871308,18.50501752712518,-42470.17865147118,0,0,0,0,0,0,0,0,0,0,0,0,-3955.473894871308,18.50501752712518,-42470.17865147118,-320.6140882577729,-3033.8007336741,27.842760560613,0,1597.032020015759,0,0,0,0,0,0,0,0,0,0,0,0,0,-320.6140882577729,-3033.8007336741,27.842760560613,0.00113458352,3.31102204e-007,0.0002918270874,445.1932916,2116.22,867.0498566,0,0,0,0,0.8898546480961818,0.7649320729048601,2.576452029471196e-033, 58987.35479, 354.2790325,           0, 354.2790325, 230717.0769,           0,           0,           0, 290154.4317,1250.090767,450.491552589804,-0.09058989943417083,0,23140.593359703,23140.403087132,-0.9724753575879405,2.420911442164915,297.9120604650918,0.8566422115252568,0.003624371105420531,0.02247393400508832,-0.5154084862102509,0.004549573290057117,0.4406884264236549,0.771731914018737,0.458478860018756,-0.004507225050126924,-0.4406171421442238,-0.7717726157019548,-0.4584792782924514,2.187679145695,-0.19022123722317,37.430026852052,37.615728352834,-122.36235557802,-8890793.001120416,-14035748.77680562,12716704.20822302,-8893385.723519385,-14034106.10929937,12716704.20822302,0.010584454468342,23140.403087132,0.19027222320437,5573.83,0,-0,-0,0,42288.2,-0,0,0,0,79535.7,-77938.6,0,-0,0,0,-0,11.4425,1,0.300078,0.039552,0,0,0,0,-10,0,0,0,0,0,0,0,0,0,0,0,0,0,1,0,-19.4884474,-0.194884474,0.999271148,0.0381729272,-0.0563382738,0,0,0,0,0,0,0,0,0,0,0,0,0,0,0,0,0,0,0,0,0,0,0,0,0,0,0,0,0,0,0,0,0,0,0,0,0,0,0,0,0,0,0,0,0,0,0,0,0,0,0,0,0,0,0,0,94.4354,0,0,0,0,11.0231,11.0231
2.633333333,0,0,-0,0,0,0,0,0,0,-0.782556369989203,3.562901852107219,0.01638505467778632,-0.3230154626803776,-4.034136250915038,0.03438057586546784,-0.7808816638727283,3.56587836890624,0.01397839503772887,249.0437186,22288007.72,662.578572999,698.269195261,661.6942473004374,-1.167887745349219,29.22339048081912,-6.471548888946701,-1.192816069491565,35.42939470523872,0.1036740080179364,-7.300262856790322,0.9882142843474675,-3.039575415855483,0.01672765044582966,-37.80257742528475,661.9300607217384,-2.356472892609635,29.2131331052896,628.1477705589093,-178.1090306699632,247.5629628731176,-395.2661674960812,470.2891490029468,247.5629628731176,309.4356084908351,-585.6065836983349,-3.029975337240948,5879.649412783978,0,47043.1661065365,8.001015503,-3799.74516332871,20.91108137795801,-47256.65301272268,0,0,0,0,0,0,0,0,0,0,0,0,-3799.74516332871,20.91108137795801,-47256.65301272268,-356.747939398253,-16245.90410933249,26.40478910614491,0,-11093.16721135638,0,0,0,0,0,0,0,0,0,0,0,0,0,-356.747939398253,-16245.90410933249,26.40478910614491,0.00113456874,3.311013838e-007,0.000291830166,445.1919278,2116.22,867.035906,0,0,0,0,0.9398546480961818,0.7649320729048601,2.323505026956418e-033, 58987.35479, 354.2790325,           0, 354.2790325, 230717.0769,           0,           0,           0, 290154.4317,1250.090767,450.491552589804,-0.09058989943417083,0,23140.975343808,23140.752009012,-1.048865557879871,2.792329307398127,297.9067932743793,0.8565728840271064,0.004726047757422992,0.02559311121500468,-0.5153693350214159,0.002336425826255216,0.4392070473554126,0.7714323127790866,0.4604170907644593,-0.002292219859632054,-0.4391329779181151,-0.7714744787425689,-0.4604173129691856,2.5270098700207,-0.20377392420972,37.430111628376,37.615813272655,-122.36255759257,-8890730.189282028,-14035766.55562381,12716728.96294296,-8893425.253175361,-14034059.04821415,12716728.96294296,0.011002261881566,23140.752009012,0.2233342602849,5879.65,0,-0,-0,0,47043.2,-0,0,0,0,76379.5,-87472.7,0,-0,0,0,-0,11.4425,1,0.334328,0.0417857,0,0,0,0,-10,0,0,0,0,0,0,0,0,0,0,0,0,0,1,0,-19.4884474,-0.194884474,0.999027548,0.044090345,-0.0633263577,0,0,0,0,0,0,0,0,0,0,0,0,0,0,0,0,0,0,0,0,0,0,0,0,0,0,0,0,0,0,0,0,0,0,0,0,0,0,0,0,0,0,0,0,0,0,0,0,0,0,0,0,0,0,0,0,94.4354,0,0,0,0,11.0231,11.0231
2.733333333,0,0,-0,0,0,0,0,0,0,-0.8153215921461297,3.062388443893397,0.0197016493917064,-0.3351692424587769,-6.80600557127206,0.03098586028330608,-0.8136324824047365,3.065368231859663,0.01730914538708642,248.6453042,22270069.95,662.053298395,698.50419708,661.041938993495,-1.29339022701015,32.42844549040638,-6.441100647558236,-1.335709139201875,26.46713452422009,-1.138859952093066,-9.589802388774036,2.70120109961827,-2.901522974035437,0.01870563215059584,-40.93607534436419,661.2544173799298,-2.526121478976133,32.41580048188143,628.0917294160635,-178.9609342542355,247.7536615021017,-395.3202517002023,469.4355587846687,247.7536615021018,309.1299627946041,-585.1960135300976,-3.743513666601324,6128.478392697618,0,50934.83535805169,8.311171566,-3627.167080430971,23.38373804462034,-51173.80983015655,0,0,0,0,0,0,0,0,0,0,0,0,-3627.167080430971,23.38373804462034,-51173.80983015655,-386.3191750620044,-27407.44755141575,24.83235813687163,0,-21827.59452943238,0,0,0,0,0,0,0,0,0,0,0,0,0,-386.3191750620044,-27407.44755141575,24.83235813687163,0.001134551855,3.31100447e-007,0.0002918336835,445.19037,2116.22,867.0199683,0,0,0,0,0.989854648096182,0.7649320729048601,2.097798760084855e-033, 58987.35479, 354.2790325,           0, 354.2790325, 230717.0769,           0,           0,           0, 290154.4317,1250.090767,450.491552589804,-0.09058989943417083,0,23141.411759838,23141.145563117,-1.128449078995584,3.134221620381558,297.901928129252,0.8565031385868337,0.005671164145297792,0.02850558629626019,-0.5153228532076246,0.0003328514486948698,0.4378421286145602,0.7711101579724284,0.4622588927126453,-0.0002867832320439543,-0.4377652784464078,-0.7711537890101634,-0.4622589235887021,2.806488523117,-0.21861752041843,37.430196324081,37.615898111282,-122.36275946892,-8890667.376307648,-14035784.40727551,12716753.72739955,-8893464.781496422,-14034012.06013242,12716753.72739955,0.01142006929479,23141.145563117,0.26619600132108,6128.48,0,-0,-0,0,50934.8,-0,0,0,0,73760.7,-95588.3,0,-0,0,0,-0,11.4425,1,0.362565,0.0436238,0,0,0,0,-10,0,0,0,0,0,0,0,0,0,0,0,0,0,1,0,-19.4884474,-0.194884474,0.998800599,0.0489628804,-0.0693125798,0,0,0,0,0,0,0,0,0,0,0,0,0,0,0,0,0,0,0,0,0,0,0,0,0,0,0,0,0,0,0,0,0,0,0,0,0,0,0,0,0,0,0,0,0,0,0,0,0,0,0,0,0,0,0,0,94.4354,0,0,0,0,11.0231,11.0231
2.833333333,0,0,-0,0,0,0,0,0,0,-0.8491550888298169,2.30771575078689,0.02259475314946129,-0.3428917657128338,-8.844831196226547,0.02507096117732973,-0.8474540975265522,2.310698919479512,0.02021491353468278,248.2306241,22251368.94,661.506881438,698.747143213,660.4033829722255,-1.432643671747115,34.67868084410611,-6.145147848249416,-1.465714023171404,15.53430507935376,-2.001284304917833,-11.21387233752568,3.863948018431451,-2.783628070221638,0.02064171100319698,-43.12308169829876,660.5925299679781,-2.709513131052904,34.66297851256967,627.9293785751788,-180.0105487967894,248.089637010874,-395.4807058944588,468.3842812127355,248.089637010874,308.8035839636725,-584.7694673272129,-4.723158601627979,6299.852005797826,0,53651.36269215486,8.516289374,-3479.78774968273,25.80401234267513,-53907.76628084497,0,0,0,0,0,0,0,0,0,0,0,0,-3479.78774968273,25.80401234267513,-53907.76628084497,-406.9582442302138,-35617.1729629997,23.45586815956354,0,-29739.2167664828,0,0,0,0,0,0,0,0,0,0,0,0,0,-406.9582442302138,-35617.1729629997,23.45586815956354,0.001134531666,3.310993272e-007,0.0002918378896,445.188508,2116.22,867.0009139,0,0,0,0,1.039854648096182,0.7649320729048601,1.891655821042078e-033, 58987.35479, 354.2790325,           0, 354.2790325, 230717.0769,           0,           0,           0, 290154.4317,1250.090767,450.491552589804,-0.09058989943417083,0,23141.933556143,23141.627514129,-1.2113139670486,3.417082708597786,297.898106659229,0.8564428448397813,0.006326023405474926,0.03099141485462843,-0.5152719351526182,-0.001262047958627301,0.4367140471782799,0.7707670652470769,0.463893715588523,0.001309970474700686,-0.4366344207853624,-0.7708121758624832,-0.463893582737389,3.0037012533396,-0.23468251864136,37.430280933178,37.615982862369,-122.36296120106,-8890604.574585121,-14035802.35458558,12716778.51867039,-8893504.320876729,-14033965.16787651,12716778.51867039,0.011837876708014,23141.627514129,0.30604111403227,6299.85,0,-0,-0,0,53651.4,-0,0,0,0,71877.7,-101617,0,-0,0,0,-0,11.4425,1,0.38254,0.0449186,0,0,0,0,-10,0,0,0,0,0,0,0,0,0,0,0,0,0,1,0,-19.4884474,-0.194884474,0.998626152,0.0524004667,-0.0738070751,0,0,0,0,0,0,0,0,0,0,0,0,0,0,0,0,0,0,0,0,0,0,0,0,0,0,0,0,0,0,0,0,0,0,0,0,0,0,0,0,0,0,0,0,0,0,0,0,0,0,0,0,0,0,0,0,94.4354,0,0,0,0,11.0231,11.0231
2.933333333,0,0,-0,0,0,0,0,0,0,-0.8835908567639675,1.377726542154248,0.02482920490243251,-0.3456585777030226,-10.00395270100824,0.01714310599975488,-0.8818814231599687,1.380713207658602,0.02245982325881433,247.8038112,22232083.2,660.945018337,698.996135525,659.8027741568033,-1.584076369133214,35.81536395225837,-5.652652188738344,-1.575990397317433,3.702000413547761,-2.426197676968506,-12.05526971100952,4.396598362927726,-2.71417698114423,0.02243657976404398,-44.21025585763112,659.9685819424728,-2.90507385559358,35.7959307561208,627.7021607521193,-181.1845586090203,248.511067332985,-395.7060771869884,467.2086260636625,248.5110673329849,308.4600895725947,-584.3311701477122,-5.865757637478197,6381.258779620749,0,55001.95764085642,8.619295901,-3392.96758446057,28.04776120880375,-55266.83265967882,0,0,0,0,0,0,0,0,0,0,0,0,-3392.96758446057,28.04776120880375,-55266.83265967882,-417.218051035065,-40284.5266920306,22.55579674312059,0,-34258.3815944688,0,0,0,0,0,0,0,0,0,0,0,0,0,-417.218051035065,-40284.5266920306,22.55579674312059,0.00113450734,3.310979783e-007,0.0002918429583,445.186265,2116.22,866.9779558,0,0,0,0,1.089854648096182,0.7649320729048601,1.70771386611947e-033, 58987.35479, 354.2790325,           0, 354.2790325, 230717.0769,           0,           0,           0, 290154.4317,1250.090767,450.491552589804,-0.09058989943417083,0,23142.562291365,23142.211409651,-1.297500089990794,3.618012303701297,297.8959354770229,0.8564017327348923,0.006586963561175796,0.03287989611665797,-0.5152199496439123,-0.002293834175718974,0.435917347311554,0.7704061033473441,0.4652367575361964,0.00234359170826507,-0.435834949100019,-0.7704527207460328,-0.4652365095474819,3.1046146014086,-0.25183487645921,37.430365450444,37.616067520436,-122.36316278414,-8890541.792714827,-14035820.41374803,12716803.34834921,-8893543.879922217,-14033918.38763832,12716803.34834921,0.012255684121238,23142.211409651,0.35088049992919,6381.26,0,-0,-0,0,55002,-0,0,0,0,70853.1,-105111,0,-0,0,0,-0,11.4425,1,0.392845,0.0455774,0,0,0,0,-10,0,0,0,0,0,0,0,0,0,0,0,0,0,1,0,-19.4884474,-0.194884474,0.998532312,0.0541592349,-0.0764767627,0,0,0,0,0,0,0,0,0,0,0,0,0,0,0,0,0,0,0,0,0,0,0,0,0,0,0,0,0,0,0,0,0,0,0,0,0,0,0,0,0,0,0,0,0,0,0,0,0,0,0,0,0,0,0,0,94.4354,0,0,0,0,11.0231,11.0231
3.033333333,0,0,-0,0,0,0,0,0,0,-0.918127583914257,0.3630326627997598,0.02622672676731045,-0.3434461087112965,-10.22280864443716,0.00790842624688839,-0.9164137142631778,0.3660229477012362,0.02386512763079117,247.3699901,22212438.94,660.37462293,699.248114257,659.2557535032948,-1.745494283278362,35.78665198377473,-5.070083425165105,-1.661519633299109,-7.935232066214795,-2.399755013309923,-12.07075628713922,4.28133923833629,-2.707620245261602,0.02399798135232022,-44.15042755220755,659.3981982859037,-3.110607307343805,35.76286941916541,627.4550789204328,-182.4015445698678,248.9532602060745,-395.9513479288805,465.9900042316006,248.9532602060745,308.1045491817998,-583.8866736184501,-7.058249213469907,6368.856254460439,0,54927.74097369574,8.624427806,-3384.771069471245,29.99965491807584,-55192.04184745632,0,0,0,0,0,0,0,0,0,0,0,0,-3384.771069471245,29.99965491807584,-55192.04184745632,-416.6534433778296,-41165.65805099785,22.28109077598646,0,-35147.66794015643,0,0,0,0,0,0,0,0,0,0,0,0,0,-416.6534433778296,-41165.65805099785,22.28109077598646,0.001134478464,3.310963774e-007,0.0002918489756,445.1836031,2116.22,866.9507052,0,0,0,0,1.139854648096182,0.7649320729048601,1.539716039581345e-033, 58987.35479, 354.2790325,           0, 354.2790325, 230717.0769,           0,           0,           0, 290154.4317,1250.090767,450.491552589804,-0.09058989943417083,0,23143.308626702,23142.914325233,-1.387004224963761,3.722452693708819,297.8959192869919,0.8563872286054902,0.006388205385818913,0.03406247655152357,-0.5151697324227555,-0.00266440331277506,0.4355127946135811,0.770030358156789,0.4662346557258298,0.002715967486727317,-0.4354276288430224,-0.7700785198895935,-0.4662343581991864,3.1044305525287,-0.26988518836645,37.430449871863,37.616152081695,-122.36336421505,-8890479.034939025,-14035838.59315672,12716828.22175394,-8893583.462879453,-14033871.72781037,12716828.22175394,0.012673491534463,23142.914325233,0.39430025592446,6368.86,0,-0,-0,0,54927.7,-0,0,0,0,70726.7,-105874,0,-0,0,0,-0,11.4425,1,0.393003,0.0455686,0,0,0,0,-10,0,0,0,0,0,0,0,0,0,0,0,0,0,1,0,-19.4884474,-0.194884474,0.998532486,0.0541560274,-0.0771669814,0,0,0,0,0,0,0,0,0,0,0,0,0,0,0,0,0,0,0,0,0,0,0,0,0,0,0,0,0,0,0,0,0,0,0,0,0,0,0,0,0,0,0,0,0,0,0,0,0,0,0,0,0,0,0,0,94.4354,0,0,0,0,11.0231,11.0231
3.133333333,0,0,-0,0,0,0,0,0,0,-0.9522787030043382,-0.6425625152236001,0.02668447512524013,-0.3366977105628132,-9.527607588294897,-0.001794417518475637,-0.9505645967683197,-0.6395684824034071,0.02432780146566255,246.934738,22192686.14,659.803108717,699.498921391,658.7669117012415,-1.914318676485948,34.64656054816743,-4.509689743919314,-1.719717426285994,-18.35603627555206,-1.949495372874528,-11.29220556939593,3.55963016746588,-2.761097032958562,0.0252538459825125,-43.00080453939483,658.8859512571753,-3.323532587093288,34.61790923007448,627.2324027892183,-183.5795651259743,249.3527565262382,-396.1722306416232,464.8103475692116,249.3527565262382,307.7430420926649,-583.4424262958984,-8.188282341958193,6267.343398990278,0,53499.769252758,8.536275396,-3451.621908026501,31.56959969703295,-53754.90873346939,0,0,0,0,0,0,0,0,0,0,0,0,-3451.621908026501,31.56959969703295,-53754.90873346939,-405.804298455996,-38366.1190243096,22.61457580944985,0,-32504.82999895873,0,0,0,0,0,0,0,0,0,0,0,0,0,-405.804298455996,-38366.1190243096,22.61457580944985,0.001134445065,3.310945261e-007,0.0002918559359,445.1805248,2116.22,866.9191877,0,0,0,0,1.189854648096182,0.7649320729048601,1.389512826411308e-033, 58987.35479, 354.2790325,           0, 354.2790325, 230717.0769,           0,           0,           0, 290154.4317,1250.090767,450.491552589804,-0.09058989943417083,0,23144.171867384,23143.732358213,-1.479790277659192,3.725074795372334,297.8983994156415,0.8564027850546966,0.005705834482519038,0.03449931365689324,-0.5151228111437315,-0.002337894834883174,0.4355230025564552,0.7696417462299222,0.4668681087331911,0.002391231295883838,-0.4354350734286173,-0.7696914967205034,-0.4668678385980933,3.0075584725131,-0.28860912153926,37.430534194948,37.61623654302,-122.36356549275,-8890416.301001534,-14035856.89297566,12716853.13774401,-8893623.069494933,-14033825.18855617,12716853.13774401,0.013091298947687,23143.732358213,0.43950748071074,6267.34,0,-0,-0,0,53499.8,-0,0,0,0,71456.6,-103961,0,-0,0,0,-0,11.4425,1,0.383461,0.0449214,0,0,0,0,-10,0,0,0,0,0,0,0,0,0,0,0,0,0,1,0,-19.4884474,-0.194884474,0.998622622,0.0524676952,-0.0759062898,0,0,0,0,0,0,0,0,0,0,0,0,0,0,0,0,0,0,0,0,0,0,0,0,0,0,0,0,0,0,0,0,0,0,0,0,0,0,0,0,0,0,0,0,0,0,0,0,0,0,0,0,0,0,0,0,94.4354,0,0,0,0,11.0231,11.0231
3.233333333,0,0,-0,0,0,0,0,0,0,-0.9856160023534428,-1.550660009007358,0.02618480629175139,-0.3262445837295653,-8.024294986366082,-0.01107489386146036,-0.9839056848235662,-1.547662094925008,0.02383031514580491,246.5036023,22173076.86,659.237754828,699.743748009,658.3305153552091,-2.087815095399066,32.54486447200145,-4.059634501614868,-1.750789361333512,-26.69882746601209,-1.138567566407243,-9.82116519426091,2.324237524178994,-2.856666215337163,0.02616427109431413,-40.91228635812155,658.4260900470105,-3.541113376095768,32.51094972336155,627.0737763034832,-184.6434297746685,249.6529506967404,-396.3290622354591,463.7448363693133,249.6529506967403,307.3821197755555,-583.0051700549465,-9.15416597607539,6089.090483844639,0,50905.72451742484,8.360152416,-3571.092060539288,32.70771372345121,-51144.07143809546,0,0,0,0,0,0,0,0,0,0,0,0,-3571.092060539288,32.70771372345121,-51144.07143809546,-386.0946752421388,-32312.54120447854,23.39237800759973,0,-26735.93077587178,0,0,0,0,0,0,0,0,0,0,0,0,0,-386.0946752421388,-32312.54120447854,23.39237800759973,0.001134407587,3.31092449e-007,0.0002918637469,445.1770708,2116.22,866.8838226,0,0,0,0,1.239854648096182,0.7649320729048601,1.25175612211318e-033, 58987.35479, 354.2790325,           0, 354.2790325, 230717.0769,           0,           0,           0, 290154.4317,1250.090767,450.491552589804,-0.09058989943417083,0,23145.140542334,23144.65404105,-1.575800860804827,3.629810597525256,297.903504443013,0.8564471693063317,0.004557915937988523,0.03421950872929937,-0.5150791170410611,-0.001340842010110119,0.4359318835212304,0.7692404758357062,0.4671516728091558,0.001395914134147633,-0.4358411953536454,-0.7692918621479216,-0.4671515114921696,2.8267843859033,-0.3077673046377,37.430618418965,37.616320904404,-122.36376661848,-8890353.586421801,-14035875.30545319,12716878.08913526,-8893662.695288912,-14033778.76212462,12716878.08913526,0.013509106360911,23144.65404105,0.48649939894676,6089.09,0,-0,-0,0,50905.7,-0,0,0,0,72926.9,-99662.8,0,-0,0,0,-0,11.4425,1,0.365506,0.0437201,0,0,0,0,-10,0,0,0,0,0,0,0,0,0,0,0,0,0,1,0,-19.4884474,-0.194884474,0.998783192,0.0493166821,-0.0728949211,0,0,0,0,0,0,0,0,0,0,0,0,0,0,0,0,0,0,0,0,0,0,0,0,0,0,0,0,0,0,0,0,0,0,0,0,0,0,0,0,0,0,0,0,0,0,0,0,0,0,0,0,0,0,0,0,94.4354,0,0,0,0,11.0231,11.0231
3.333333333,0,0,-0,0,0,0,0,0,0,-1.017805527166808,-2.285733858917066,0.02479857733383875,-0.3131940957515628,-5.884893346488306,-0.01907407379641008,-1.016102516046321,-2.282731927033168,0.02244390930151845,246.0815776,22153841.29,658.68502311,699.977883504,657.9336876755418,-2.26340540431022,29.70898093187125,-3.765300787896218,-1.757795622678238,-32.32734836171895,-0.05740499307917268,-7.817027037617873,0.7072633979318326,-2.96800660840036,0.02673054644383857,-38.11104683263805,658.0057254763573,-3.760770070519593,29.66953855598922,627.0110468554166,-185.5312067912639,249.808638405519,-396.3899766999617,462.855392622962,249.8086384055189,307.0280443948993,-582.5811367715068,-9.873346111351605,5852.620866886809,0,47426.78340594392,8.103511997,-3710.277657915205,33.4156093095399,-47642.26777079431,0,0,0,0,0,0,0,0,0,0,0,0,-3710.277657915205,33.4156093095399,-47642.26777079431,-359.6590061279804,-23697.6285861555,24.36592506221305,0,-18502.84530390023,0,0,0,0,0,0,0,0,0,0,0,0,0,-359.6590061279804,-23697.6285861555,24.36592506221305,0.001134366834,3.310901903e-007,0.0002918722413,445.1733152,2116.22,866.8453671,0,0,0,0,1.289854648096181,0.7649320729048601,1.128840236256102e-033, 58987.35479, 354.2790325,           0, 354.2790325, 230717.0769,           0,           0,           0, 290154.4317,1250.090767,450.491552589804,-0.09058989943417083,0,23146.193911152,23145.660232796,-1.674966536772417,3.449048316013592,297.911120061986,0.8565148693697257,0.003000825390307166,0.03331514013126196,-0.515037255966569,0.0002433076782264722,0.4366879491576476,0.7688252858777203,0.4671308763686074,-0.000186534808727145,-0.4365945065594333,-0.7688783531785737,-0.4671309024891144,2.5817232567119,-0.32713272037239,37.430702544947,37.616405166733,-122.36396759575,-8890290.883122919,-14035893.81593647,12716903.06362058,-8893702.332183391,-14033732.43386441,12716903.06362058,0.013926913774135,23145.660232796,0.53367614746094,5852.62,0,-0,-0,0,47426.8,-0,0,0,0,74962,-93464.8,0,-0,0,0,-0,11.4425,1,0.341111,0.0420943,0,0,0,0,-10,0,0,0,0,0,0,0,0,0,0,0,0,0,1,0,-19.4884474,-0.194884474,0.998984989,0.0450443249,-0.068478856,0,0,0,0,0,0,0,0,0,0,0,0,0,0,0,0,0,0,0,0,0,0,0,0,0,0,0,0,0,0,0,0,0,0,0,0,0,0,0,0,0,0,0,0,0,0,0,0,0,0,0,0,0,0,0,0,94.4354,0,0,0,0,11.0231,11.0231
3.433333333,0,0,-0,0,0,0,0,0,0,-1.048630272594154,-2.791243391790899,0.02267848220492192,-0.2988055036150217,-3.328885804274978,-0.02504669359042588,-1.046937301240043,-2.788237304393529,0.02032187659344735,245.6727285,22135170.08,658.150074767,700.19753805,657.560906066351,-2.43891311473854,26.42021166517961,-3.62600534060161,-1.746371122823321,-34.87575896124557,1.185808279729422,-5.480256759123538,-1.134049705046024,-3.068966711399297,0.02699835590397003,-34.87476938844087,657.6093310554066,-3.980325149846836,26.37509500925597,627.0660016372738,-186.1991737638797,249.7892903469916,-396.3331705894547,462.1857304016116,249.7892903469917,306.6861101332125,-582.1753120974263,-10.28867843981595,5580.655963518281,0,43407.85591352655,7.778271264,-3836.486950521755,33.75039544299786,-43596.62721796169,0,0,0,0,0,0,0,0,0,0,0,0,-3836.486950521755,33.75039544299786,-43596.62721796169,-329.1178264473018,-13405.19207604488,25.28219478186164,0,-8651.534434806061,0,0,0,0,0,0,0,0,0,0,0,0,0,-329.1178264473018,-13405.19207604488,25.28219478186164,0.00113432388,3.310878098e-007,0.0002918811952,445.1693569,2116.22,866.8048352,0,0,0,0,1.339854648096182,0.7649320729048601,1.016582810372099e-033, 58987.35479, 354.2790325,           0, 354.2790325, 230717.0769,           0,           0,           0, 290154.4317,1250.090767,450.491552589804,-0.09058989943417083,0,23147.304211663,23146.72477836,-1.777211140122917,3.202132175145805,297.9208822187192,0.8565974187437524,0.001122437133447933,0.03193014577853269,-0.5149952117515111,0.002284338882164772,0.4377108147728837,0.7683943014164506,0.4668770951518769,-0.002225894579206291,-0.4376146227402651,-0.7684490886079001,-0.4668773774503383,2.2967619754837,-0.34651249181904,37.430786575528,37.616489333158,-122.36416843004,-8890228.180333065,-14035912.40445648,12716928.04508856,-8893741.969403699,-14033686.18380897,12716928.04508856,0.014344721187359,23146.72477836,0.57943099737167,5580.66,0,-0,-0,0,43407.9,-0,0,0,0,77345.6,-85997.2,0,-0,0,0,-0,11.4425,1,0.312725,0.040205,0,0,0,0,-10,0,0,0,0,0,0,0,0,0,0,0,0,0,1,0,-19.4884474,-0.194884474,0.999196662,0.0400753238,-0.0631123915,0,0,0,0,0,0,0,0,0,0,0,0,0,0,0,0,0,0,0,0,0,0,0,0,0,0,0,0,0,0,0,0,0,0,0,0,0,0,0,0,0,0,0,0,0,0,0,0,0,0,0,0,0,0,0,0,94.4354,0,0,0,0,11.0231,11.0231
3.533333333,0,0,-0,0,0,0,0,0,0,-1.078001660024467,-3.033565199948122,0.02004621406615548,-0.2843659303649108,-0.6014204373727794,-0.02843054581449488,-1.076320477097088,-3.030554820401828,0.01768665003726323,245.2798465,22117198.05,657.636335233,700.400513886,657.19811781352,-2.612825881363136,22.98630982864106,-3.606274196098692,-1.724162293068738,-34.26592657977085,2.475069135847578,-3.032173571872111,-3.03246766122485,-3.141034719919359,0.02705487763282121,-31.50547647367973,657.2228606791726,-4.19826564278091,22.93546130351073,627.2490966820581,-186.624988496385,249.5807769678275,-396.1481756089214,461.7581857272446,249.5807769678276,306.35997106563,-581.790813021403,-10.3721438873188,5297.890859338401,0,39223.80046537503,7.403663365,-3926.578502577477,33.82105273437644,-39384.7052534928,0,0,0,0,0,0,0,0,0,0,0,0,-3926.578502577477,33.82105273437644,-39384.7052534928,-297.3213621203427,-2422.382600878503,25.9546058625219,0,1872.018526534172,0,0,0,0,0,0,0,0,0,0,0,0,0,-297.3213621203427,-2422.382600878503,25.9546058625219,0.001134279963,3.310853759e-007,0.0002918903504,445.1653099,2116.22,866.7633961,0,0,0,0,1.389854648096181,0.7649320729048601,9.164209853308123e-034, 58987.35479, 354.2790325,           0, 354.2790325, 230717.0769,           0,           0,           0, 290154.4317,1250.090767,450.491552589804,-0.09058989943417083,0,23148.439408794,23147.8092323,-1.882453328997573,2.913311454519849,297.9321963160768,0.8566852047232404,-0.0009671784074931009,0.03024510578870777,-0.5149512191946513,0.004619105747689821,0.438900132596042,0.7679461401854548,0.4664805068205211,-0.004559010255008059,-0.4388011964765129,-0.7680026761602737,-0.4664810980167721,1.9986706885306,-0.36577135962356,37.430870514575,37.61657340755,-122.36436912823,-8890165.465662599,-14035931.04772749,12716953.01518699,-8893781.594555903,-14033639.98867575,12716953.01518699,0.014762528600583,23147.8092323,0.63017392158508,5297.89,0,-0,-0,0,39223.8,-0,0,0,0,79841.8,-77969.8,0,-0,0,0,-0,11.4425,1,0.283034,0.038229,0,0,0,0,-10,0,0,0,0,0,0,0,0,0,0,0,0,0,1,0,-19.4884474,-0.194884474,0.999391636,0.03487631,-0.0573128521,0,0,0,0,0,0,0,0,0,0,0,0,0,0,0,0,0,0,0,0,0,0,0,0,0,0,0,0,0,0,0,0,0,0,0,0,0,0,0,0,0,0,0,0,0,0,0,0,0,0,0,0,0,0,0,0,94.4354,0,0,0,0,11.0231,11.0231
3.633333333,0,0,-0,0,0,0,0,0,0,-1.105957835202006,-3.003914909072162,0.01717158970171397,-0.2710810991350349,2.049569755524678,-0.02890106921330917,-1.104289094477579,-3.000900104073864,0.01480884581559962,244.9043059,22099996.68,657.145325653,700.586510759,656.8354346165255,-2.784435973634345,19.71322777161112,-3.655799222465967,-1.700024991726785,-30.7014104413861,3.696088167143163,-0.6936561541832838,-4.825427677531961,-3.177441538100668,0.02701946796839225,-28.301787653287,656.836443247233,-4.413883503577792,19.6566396666066,627.5591420507607,-186.808684198859,249.1856693192608,-395.836174630577,461.5727219631704,249.185669319261,306.0512664332909,-581.4286219510673,-10.12583287481748,5028.73670400887,0,35245.15485794871,7.008749301,-3972.090329846181,33.77678743980695,-35379.8034383913,0,0,0,0,0,0,0,0,0,0,0,0,-3972.090329846181,33.77678743980695,-35379.8034383913,-267.0877256068738,8252.441098727672,26.30300840403399,0,12110.15862626946,0,0,0,0,0,0,0,0,0,0,0,0,0,-267.0877256068738,8252.441098727672,26.30300840403399,0.001134236374,3.310829601e-007,0.0002918994381,445.161293,2116.22,866.7222663,0,0,0,0,1.439854648096181,0.7649320729048601,8.249457608361774e-034, 58987.35479, 354.2790325,           0, 354.2790325, 230717.0769,           0,           0,           0, 290154.4317,1250.090767,450.491552589804,-0.09058989943417083,0,23149.566180333,23148.889881956,-1.99060671972932,2.609372754214541,297.9442811295961,0.8567692237168537,-0.003146494561652888,0.02845964328535226,-0.5149045014055173,0.007067486456451133,0.4401457729205076,0.7674808402972349,0.4660417459756664,-0.00700574824950006,-0.4400440982450828,-0.7675391411796617,-0.4660426781404513,1.7141351873144,-0.38484455073824,37.430954366692,37.616657395063,-122.36456969789,-8890102.72626227,-14035949.72135116,12716977.95499383,-8893821.194785496,-14033593.82407008,12716977.95499383,0.015180336013807,23148.889881956,0.67629571259022,5028.74,0,-0,-0,0,35245.2,-0,0,0,0,82216.4,-70106.3,0,-0,0,0,-0,11.4425,1,0.254715,0.0363424,0,0,0,0,-10,0,0,0,0,0,0,0,0,0,0,0,0,0,1,0,-19.4884474,-0.194884474,0.999552511,0.0299128402,-0.0516116738,0,0,0,0,0,0,0,0,0,0,0,0,0,0,0,0,0,0,0,0,0,0,0,0,0,0,0,0,0,0,0,0,0,0,0,0,0,0,0,0,0,0,0,0,0,0,0,0,0,0,0,0,0,0,0,0,94.4354,0,0,0,0,11.0231,11.0231
3.733333333,0,0,-0,0,0,0,0,0,0,-1.132652577891569,-2.717747295347455,0.01434850031659777,-0.2599853396101093,4.395204359700839,-0.02640129828670295,-1.130995826611288,-2.714727936968857,0.01198313488365263,244.5459842,22083569.58,656.676581003,700.757008334,656.4676784999904,-2.953948611018575,16.87831752840134,-3.730430062521242,-1.683119528406158,-24.63413744738056,4.745079073147378,1.335170438577073,-6.368333033282564,-3.182977679681541,0.02703021130155972,-25.53287129674453,656.4449267878679,-4.627383800225855,16.81598795491803,627.9839529909344,-186.7715945822959,248.6220243115602,-395.4093512188752,461.6080050497855,248.62202431156,305.7594194922909,-581.087612424188,-9.580209238130195,4795.202972273388,0,31806.04318288231,6.632887777,-3979.011009321906,33.79021758140771,-31918.40666614743,0,0,0,0,0,0,0,0,0,0,0,0,-3979.011009321906,33.79021758140771,-31918.40666614743,-240.9570945271545,17697.64597184894,26.35378932064659,0,21177.94221096231,0,0,0,0,0,0,0,0,0,0,0,0,0,-240.9570945271545,17697.64597184894,26.35378932064659,0.001134194337,3.310806302e-007,0.0002919082027,445.1574189,2116.22,866.6826014,0,0,0,0,1.489854648096181,0.7649320729048601,7.433280767824313e-034, 58987.35479, 354.2790325,           0, 354.2790325, 230717.0769,           0,           0,           0, 290154.4317,1250.090767,450.491552589804,-0.09058989943417083,0,23150.652857728,23149.925452107,-2.101581218494066,2.317155013150847,297.9562348243467,0.8568423489049956,-0.005293799147695735,0.0267739133464253,-0.5148556325589452,0.009449107581768215,0.4413382510780384,0.7670002714991976,0.4656628029179949,-0.009385721715836442,-0.4412338433115738,-0.7670603391265657,-0.4656640848115819,1.467410942904,-0.40374784765084,37.43103813662,37.616741300406,-122.36477014659,-8890039.949960219,-14035968.4020176,12717002.84663269,-8893860.75791494,-14033547.66668592,12717002.84663269,0.015598143427031,23149.925452107,0.72740261256695,4795.2,0,-0,-0,0,31806,-0,0,0,0,84257.6,-63079.7,0,-0,0,0,-0,11.4425,1,0.230198,0.0347055,0,0,0,0,-10,0,0,0,0,0,0,0,0,0,0,0,0,0,1,0,-19.4884474,-0.194884474,0.999672052,0.0256083527,-0.0465067996,0,0,0,0,0,0,0,0,0,0,0,0,0,0,0,0,0,0,0,0,0,0,0,0,0,0,0,0,0,0,0,0,0,0,0,0,0,0,0,0,0,0,0,0,0,0,0,0,0,0,0,0,0,0,0,0,94.4354,0,0,0,0,11.0231,11.0231
3.833333333,0,0,-0,0,0,0,0,0,0,-1.158335314659456,-2.212342911078083,0.01186712836975628,-0.251875736461528,6.244727296673196,-0.02115009447697017,-1.156689079559555,-2.209318878396626,0.009500392264518778,244.2033843,22067857.12,656.227835997,700.914748151,656.0931808768347,-3.122448267610963,14.70742746277554,-3.806757664731131,-1.681987873866997,-16.714154259035,5.536422149278055,2.892118569657317,-7.545598747752552,-3.170110198505305,0.02722811300425056,-23.41648277672578,656.0466743780174,-4.839850841021282,14.63931755282615,628.501759082974,-186.5533775233745,247.9210768361669,-394.8894805743691,461.8243799226499,247.9210768361669,305.4817911977734,-580.7649518305428,-8.790112098645485,4615.10687837958,0,29177.03521237024,6.322071402,-3962.92548990739,34.03761267273904,-29272.72891763125,0,0,0,0,0,0,0,0,0,0,0,0,-3962.92548990739,34.03761267273904,-29272.72891763125,-220.9844552282847,25145.12035944787,26.20538190552829,0,28336.93909357875,0,0,0,0,0,0,0,0,0,0,0,0,0,-220.9844552282847,25145.12035944787,26.20538190552829,0.00113415491,3.310784449e-007,0.0002919164235,445.1537853,2116.22,866.6453997,0,0,0,0,1.539854648096181,0.7649320729048601,6.687893923242924e-034, 58987.35479, 354.2790325,           0, 354.2790325, 230717.0769,           0,           0,           0, 290154.4317,1250.090767,450.491552589804,-0.09058989943417083,0,23151.672085875,23150.901399549,-2.215287956828633,2.06119783643723,297.9671165257283,0.8568998754720175,-0.007297858194940743,0.02537104945563882,-0.5148064243298902,0.01159914711495526,0.4423782916079865,0.7665078910547579,0.4654380300867047,-0.01153409480542785,-0.4422711559001456,-0.7665697128076237,-0.4654396467017029,1.2783113875559,-0.42257509583036,37.431121828662,37.616825128372,-122.36497048118,-8889977.126300415,-14035987.06950152,12717027.67472078,-8893900.27348271,-14033501.49630172,12717027.67472078,0.016015950840255,23150.901399549,0.77068305388093,4615.11,0,-0,-0,0,29177,-0,0,0,0,85793.1,-57456.2,0,-0,0,0,-0,11.4425,1,0.211466,0.0334489,0,0,0,0,-10,0,0,0,0,0,0,0,0,0,0,0,0,0,1,0,-19.4884474,-0.194884474,0.999751126,0.0223088917,-0.0424201713,0,0,0,0,0,0,0,0,0,0,0,0,0,0,0,0,0,0,0,0,0,0,0,0,0,0,0,0,0,0,0,0,0,0,0,0,0,0,0,0,0,0,0,0,0,0,0,0,0,0,0,0,0,0,0,0,94.4354,0,0,0,0,11.0231,11.0231
3.933333333,0,0,-0,0,0,0,0,0,0,-1.183325735148761,-1.542300915858701,0.009987647821871811,-0.2472671705980294,7.46004336825534,-0.0136209138726226,-1.181687697472609,-1.539272096039719,0.007621345531346004,243.8738048,22052743.45,655.795270786,701.063005139,655.7114715956319,-3.291825198449487,13.35762863960986,-3.88628016326995,-1.703745710638295,-7.721020210370945,6.008903397406115,3.865516438416773,-8.278867131938949,-3.153145897152603,0.02774200447688351,-22.10270115904306,655.6412493704944,-5.053174516937506,13.28362664240651,629.083405131514,-186.2075006408955,247.1238015007407,-394.3057281332448,462.1683847162786,247.1238015007407,305.2139835788713,-580.4566581443797,-7.828702440074313,4500.734227449736,0,27544.86857236848,6.120083342,-3941.71857341572,34.68002365797968,-27630.38264735288,0,0,0,0,0,0,0,0,0,0,0,0,-3941.71857341572,34.68002365797968,-27630.38264735288,-208.5861237691677,30038.80720301205,25.97524079621654,0,33051.54896730678,0,0,0,0,0,0,0,0,0,0,0,0,0,-208.5861237691677,30038.80720301205,25.97524079621654,0.001134118902,3.310764489e-007,0.0002919239318,445.1504664,2116.22,866.6114236,0,0,0,0,1.589854648096181,0.7649320729048601,6.022835926738086e-034, 58987.35479, 354.2790325,           0, 354.2790325, 230717.0769,           0,           0,           0, 290154.4317,1250.090767,450.491552589804,-0.09058989943417083,0,23152.60296242,23151.779200985,-2.331648129349624,1.861693941900117,297.976036839427,0.8569393799829169,-0.009067191028219976,0.02440185167764369,-0.5147593949759965,0.01338206219652336,0.4431848677624568,0.7660079355270218,0.4654459540133226,-0.01331531171248713,-0.4430750087855506,-0.7660714854983709,-0.4654478683698131,1.1606829639081,-0.44149211035539,37.431205446139,37.616908882437,-122.36517070731,-8889914.247392122,-14036005.70827643,12717052.42751438,-8893939.733593334,-14033455.29739428,12717052.42751438,0.016433758253479,23151.779200985,0.82375786826015,4500.73,0,-0,-0,0,27544.9,-0,0,0,0,86703.1,-53651.5,0,-0,0,0,-0,11.4425,1,0.199907,0.032664,0,0,0,0,-10,0,0,0,0,0,0,0,0,0,0,0,0,0,1,0,-19.4884474,-0.194884474,0.999794819,0.0202563538,-0.0396647336,0,0,0,0,0,0,0,0,0,0,0,0,0,0,0,0,0,0,0,0,0,0,0,0,0,0,0,0,0,0,0,0,0,0,0,0,0,0,0,0,0,0,0,0,0,0,0,0,0,0,0,0,0,0,0,0,94.4354,0,0,0,0,11.0231,11.0231
4.033333333,0,0,-0,0,0,0,0,0,0,-1.207984419619385,-0.7741063898845065,0.008915408524957187,-0.2463686084368301,7.96512098536804,-0.004500562491847331,-1.206351660301859,-0.7710726786410227,0.006551725687374019,243.5536698,22038070.94,655.373967363,701.204823545,655.3211117289079,-3.464582292810349,12.90679131244772,-3.988826976183685,-1.753438807552335,1.508443213670034,6.130156033821011,4.201261994018505,-8.53192550852253,-3.142643642940767,0.02867559862928949,-21.66439805624293,655.2272443800127,-5.269856989839157,12.82668805333739,629.6949781587495,-185.7958022065016,246.2769963410168,-393.6920215593053,462.5781893948877,246.2769963410167,304.9503769629255,-580.1582912887835,-6.780317773301899,4458.044478984843,0,27000.38514152806,6.056553556,-3928.589802391548,35.84710108814048,-27082.46398534198,0,0,0,0,0,0,0,0,0,0,0,0,-3928.589802391548,35.84710108814048,-27082.46398534198,-204.449799227148,32072.56437883601,25.74887468129067,0,35025.56258266163,0,0,0,0,0,0,0,0,0,0,0,0,0,-204.449799227148,32072.56437883601,25.74887468129067,0.001134086813,3.3107467e-007,0.000291930623,445.1475085,2116.22,866.5811458,0,0,0,0,1.639854648096181,0.7649320729048601,5.415461541102866e-034, 58987.35479, 354.2790325,           0, 354.2790325, 230717.0769,           0,           0,           0, 290154.4317,1250.090767,450.491552589804,-0.09058989943417083,0,23153.432528558,23152.561919429,-2.450604386998235,1.732938260087636,297.9822474513028,0.8569601259314601,-0.01053708506980596,0.02397316969217229,-0.5147170091775457,0.01470195225582461,0.4437010674777608,0.7655043245484042,0.4657427878310668,-0.01463346105605238,-0.4435884894114907,-0.7655695659081837,-0.4657449448295791,1.1214753981354,-0.46071988372501,37.431288990994,37.616992564547,-122.36537082919,-8889851.308525354,-14036024.30863232,12717077.09769839,-8893979.133533342,-14033409.0602562,12717077.09769839,0.016851565666703,23152.561919429,0.87060517817736,4458.04,0,-0,-0,0,27000.4,-0,0,0,0,86928.2,-51902.6,0,-0,0,0,-0,11.4425,1,0.196213,0.0323967,0,0,0,0,-10,0,0,0,0,0,0,0,0,0,0,0,0,0,1,0,-19.4884474,-0.194884474,0.999808446,0.0195721884,-0.0384221975,0,0,0,0,0,0,0,0,0,0,0,0,0,0,0,0,0,0,0,0,0,0,0,0,0,0,0,0,0,0,0,0,0,0,0,0,0,0,0,0,0,0,0,0,0,0,0,0,0,0,0,0,0,0,0,0,94.4354,0,0,0,0,11.0231,11.0231
4.133333333,0,0,-0,0,0,0,0,0,0,-1.232681832303739,0.02043027912330732,0.008782320520688816,-0.2490770178116354,7.749336586956077,0.005377070909853862,-1.23105112271729,0.02346897769387404,0.006423634298150148,243.2388543,22023654.6,654.95835085,701.342452835,654.9184041622057,-3.643631818723236,13.35060287428846,-4.139024371712888,-1.833638368001723,10.15781988020498,5.898858367670659,3.904111857095824,-8.311984806911742,-3.141950728669093,0.03009838713811158,-22.09484494268457,654.8009884986016,-5.492809312355741,13.26408139236518,630.300901081391,-185.3825472240342,245.4288520721574,-393.0839556197923,462.9895389370561,245.4288520721572,304.6846697468934,-579.8655201745618,-5.732477145084676,4486.461373798857,0,27535.35035753963,6.137431723,-3927.723596658121,37.62571586658473,-27620.56166381863,0,0,0,0,0,0,0,0,0,0,0,0,-3927.723596658121,37.62571586658473,-27620.56166381863,-208.5119836129073,31203.62988550127,25.54840024007031,0,34215.30079646625,0,0,0,0,0,0,0,0,0,0,0,0,0,-208.5119836129073,31203.62988550127,25.54840024007031,0.001134058811,3.310731174e-007,0.0002919364623,445.1449269,2116.22,866.554723,0,0,0,0,1.689854648096181,0.7649320729048601,4.873541040089174e-034, 58987.35479, 354.2790325,           0, 354.2790325, 230717.0769,           0,           0,           0, 290154.4317,1250.090767,450.491552589804,-0.09058989943417083,0,23154.156477355,23153.238836065,-2.572131429907623,1.682351446482653,297.9852217841798,0.856962361491113,-0.01167399978202578,0.02414057193120249,-0.5146809317465515,0.01550904710783343,0.4438976483673138,0.7649996269494657,0.4663581434894796,-0.01543876502956918,-0.4437823550450055,-0.7650665152844958,-0.4663604754645367,1.1604624523807,-0.48051678421577,37.431372463518,37.617076175281,-122.36557084947,-8889788.308488052,-14036042.86721138,12717101.68273931,-8894018.472088838,-14033362.78153133,12717101.68273931,0.017269373079927,23153.238836065,0.91763712093234,4486.46,0,-0,-0,0,27535.4,-0,0,0,0,86471.6,-52256.3,0,-0,0,0,-0,11.4425,1,0.200359,0.0326454,0,0,0,0,-10,0,0,0,0,0,0,0,0,0,0,0,0,0,1,0,-19.4884474,-0.194884474,0.999794897,0.0202525059,-0.0387340596,0,0,0,0,0,0,0,0,0,0,0,0,0,0,0,0,0,0,0,0,0,0,0,0,0,0,0,0,0,0,0,0,0,0,0,0,0,0,0,0,0,0,0,0,0,0,0,0,0,0,0,0,0,0,0,0,94.4354,0,0,0,0,11.0231,11.0231
4.233333333,0,0,-0,0,0,0,0,0,0,-1.257767432224078,0.7704806495979932,0.009633997330160727,-0.2549918863078751,6.865343145249705,0.01510666625606409,-1.256135540140177,0.7735244237499089,0.007282684804542855,242.9251031,22009301.07,654.542752428,701.477062501,654.4976306987968,-3.832018727146135,14.6068204691492,-4.351334889773188,-1.94426480814681,17.49876917083045,5.344382588203246,3.033660446632851,-7.667289508229759,-3.146825509000443,0.03204014915024721,-23.31214947437444,654.356781683885,-5.725074662863372,14.51346067103191,630.8669833886488,-185.02873046026,244.6247889913005,-392.5157398343066,463.3414494251192,244.6247889913005,304.410489994191,-579.5745937322785,-4.768232758842114,4579.235092317465,0,29047.90774031888,6.343397348,-3933.817514542085,40.05309462990166,-29142.3028196586,0,0,0,0,0,0,0,0,0,0,0,0,-3933.817514542085,40.05309462990166,-29142.3028196586,-219.9998480094245,27644.03703926784,25.32972941147061,0,30821.63446645805,0,0,0,0,0,0,0,0,0,0,0,0,0,-219.9998480094245,27644.03703926784,25.32972941147061,0.001134034729,3.310717819e-007,0.0002919414842,445.1427063,2116.22,866.5319986,0,0,0,0,1.739854648096181,0.7649320729048601,4.375653225440147e-034, 58987.35479, 354.2790325,           0, 354.2790325, 230717.0769,           0,           0,           0, 290154.4317,1250.090767,450.491552589804,-0.09058989943417083,0,23154.779095828,23153.807835008,-2.696242341896773,1.710166242037486,297.9847167041581,0.8569468095854564,-0.012476968831488,0.02490596925152348,-0.5146515165485549,0.01580174586430075,0.4437740790794479,0.7644944018558183,0.4672934635707441,-0.0157296190389015,-0.4436560742605313,-0.7645628891748746,-0.4672958970001698,1.2705969383662,-0.50115412176518,37.43145586226,37.617159712992,-122.36577076941,-8889725.249585092,-14036061.38696654,12717126.18482258,-8894057.751564691,-14033316.46417324,12717126.18482258,0.017687180493151,23153.807835008,0.9712563790381,4579.24,0,-0,-0,0,29047.9,-0,0,0,0,85395.7,-54574.1,0,-0,0,0,-0,11.4425,1,0.211638,0.0333635,0,0,0,0,-10,0,0,0,0,0,0,0,0,0,0,0,0,0,1,0,-19.4884474,-0.194884474,0.99975412,0.0221742825,-0.0405043459,0,0,0,0,0,0,0,0,0,0,0,0,0,0,0,0,0,0,0,0,0,0,0,0,0,0,0,0,0,0,0,0,0,0,0,0,0,0,0,0,0,0,0,0,0,0,0,0,0,0,0,0,0,0,0,0,94.4354,0,0,0,0,11.0231,11.0231
4.333333333,0,0,-0,0,0,0,0,0,0,-1.283540948893375,1.412507265907476,0.01142607875970802,-0.263449733297087,5.42136426835846,0.02379890228905315,-1.281904930022484,1.415556197462247,0.009084335374340644,242.6083764,21994824.44,654.121864945,701.608805468,654.0525161890287,-4.032679525353672,16.52614285344907,-4.619528993525229,-2.082660600187748,22.95243173914633,4.523678181120022,1.695820692885217,-6.681192421525367,-3.147960564800683,0.03448925503114607,-25.16992173571682,653.8883567883845,-5.969587213144219,16.42544013437933,631.363440263809,-184.7869158534939,243.9035012824708,-392.0171775598591,463.581367609959,243.9035012824706,304.121886112524,-579.2825514167589,-3.959020891233365,4724.324562510908,0,31355.94386585396,6.637127372,-3935.236437318131,43.11469927931489,-31464.68677097609,0,0,0,0,0,0,0,0,0,0,0,0,-3935.236437318131,43.11469927931489,-31464.68677097609,-237.5318913579247,21829.58339641633,25.00661204081349,0,25260.40725235932,0,0,0,0,0,0,0,0,0,0,0,0,0,-237.5318913579247,21829.58339641633,25.00661204081349,0.0011340141,3.310706376e-007,0.0002919457859,445.1408038,2116.22,866.5125324,0,0,0,0,1.789854648096181,0.7649320729048601,3.931421361036242e-034, 58987.35479, 354.2790325,           0, 354.2790325, 230717.0769,           0,           0,           0, 290154.4317,1250.090767,450.491552589804,-0.09058989943417083,0,23155.312440079,23154.293788619,-2.822987707462876,1.809737486392721,297.9808096226349,0.8569145296466231,-0.01297618239854166,0.02621990237603346,-0.5146276559710503,0.01562448560004832,0.4433573054363686,0.7639870822414812,0.4685231193165226,-0.0155504607085738,-0.4432365931338293,-0.7640571213088492,-0.4685255820722084,1.4389467501212,-0.5228947677749,37.431539184067,37.617243174512,-122.36597058912,-8889662.137339881,-14036079.87656382,12717150.61036359,-8894096.977486204,-14033270.11684749,12717150.61036359,0.018104987906375,23154.293788619,1.0186468847096,4724.32,0,-0,-0,0,31355.9,-0,0,0,0,83814.2,-58553.7,0,-0,0,0,-0,11.4425,1,0.228752,0.0344656,0,0,0,0,-10,0,0,0,0,0,0,0,0,0,0,0,0,0,1,0,-19.4884474,-0.194884474,0.999684651,0.0251117186,-0.0435147429,0,0,0,0,0,0,0,0,0,0,0,0,0,0,0,0,0,0,0,0,0,0,0,0,0,0,0,0,0,0,0,0,0,0,0,0,0,0,0,0,0,0,0,0,0,0,0,0,0,0,0,0,0,0,0,0,94.4354,0,0,0,0,11.0231,11.0231
4.433333333,0,0,-0,0,0,0,0,0,0,-1.31022788292823,1.895260791220311,0.01402792060064033,-0.2735824331386624,3.569312034313759,0.03066101366003067,-1.308585329828609,1.898314957150678,0.01169760018507452,242.2852234,21980063.61,653.691231681,701.737106539,653.5785009479851,-4.248174729147593,18.90838044222963,-4.914138784650111,-2.243863399547501,26.13087129510145,3.515578107240774,0.0310164191519462,-5.463278767580844,-3.13524932430526,0.03739368086247,-27.47296973311936,653.3911505117253,-6.228904638173685,18.7997754524621,631.7673322605515,-184.697201851889,243.2939543222329,-391.6112246263571,463.6692045820911,243.2939543222329,303.8138077560956,-578.9873206279633,-3.359093581186851,4905.697246061806,0,34216.77546531755,6.974905655,-3919.346232936149,46.74549519484048,-34343.70580876536,0,0,0,0,0,0,0,0,0,0,0,0,-3919.346232936149,46.74549519484048,-34343.70580876536,-259.2660609137573,14371.98321849542,24.49076226731649,0,18116.72747887328,0,0,0,0,0,0,0,0,0,0,0,0,0,-259.2660609137573,14371.98321849542,24.49076226731649,0.001133996214,3.310696453e-007,0.0002919495156,445.1391538,2116.22,866.4956535,0,0,0,0,1.839854648096181,0.7649320729048601,3.525718046813321e-034, 58987.35479, 354.2790325,           0, 354.2790325, 230717.0769,           0,           0,           0, 290154.4317,1250.090767,450.491552589804,-0.09058989943417083,0,23155.774891933,23154.707069164,-2.952446906785847,1.968452793670589,297.9739048815931,0.8568671344152461,-0.01322885825546498,0.02798832423358043,-0.5146070005109312,0.01506160537643935,0.4426983128764765,0.7634743951926657,0.4699980847886501,-0.01498563380480799,-0.4425748976551019,-0.7635459438069601,-0.470000513234808,1.6480950072443,-0.54596930556498,37.431622424272,37.617326554794,-122.36617030783,-8889598.979932198,-14036098.34933152,12717174.96918542,-8894136.158036815,-14033223.75288091,12717174.96918542,0.018522795319599,23154.707069164,1.0678179077804,4905.7,0,-0,-0,0,34216.8,-0,0,0,0,81879.1,-63762.4,0,-0,0,0,-0,11.4425,1,0.249956,0.0358365,0,0,0,0,-10,0,0,0,0,0,0,0,0,0,0,0,0,0,1,0,-19.4884474,-0.194884474,0.999586325,0.0287607177,-0.0474487992,0,0,0,0,0,0,0,0,0,0,0,0,0,0,0,0,0,0,0,0,0,0,0,0,0,0,0,0,0,0,0,0,0,0,0,0,0,0,0,0,0,0,0,0,0,0,0,0,0,0,0,0,0,0,0,0,94.4354,0,0,0,0,11.0231,11.0231
4.533333333,0,0,-0,0,0,0,0,0,0,-1.337961789994419,2.183832759903849,0.01723541479649939,-0.2843954450346715,1.489399185209435,0.03507218681066449,-1.336311017590584,2.186892234160726,0.01491790078430006,241.953022,21964893.62,653.247549911,701.861090877,653.0747897474538,-4.480500220306908,21.52233233920174,-5.188715555343102,-2.421072983398436,26.86409601717653,2.412992595820809,-1.799667192418223,-4.138356703638163,-3.102140408279842,0.0406647332845762,-29.99658439139391,652.864351567462,-6.505019587863059,21.40524788301279,632.0644428844881,-184.7844144130716,242.8132021098907,-391.3121102705724,463.5801418438422,242.8132021098905,303.4824248234527,-578.6876319993255,-3.001511205127411,5104.916662300628,0,37351.23763705303,7.316718393,-3877.957082703392,50.83460762648401,-37498.45319284542,0,0,0,0,0,0,0,0,0,0,0,0,-3877.957082703392,50.83460762648401,-37498.45319284542,-283.0817473164654,5996.90418240315,23.7324433369463,0,10085.63351606512,0,0,0,0,0,0,0,0,0,0,0,0,0,-283.0817473164654,5996.90418240315,23.7324433369463,0.001133980189,3.310687561e-007,0.0002919528571,445.1376753,2116.22,866.480531,0,0,0,0,1.889854648096181,0.7649320729048601,3.163732758680427e-034, 58987.35479, 354.2790325,           0, 354.2790325, 230717.0769,           0,           0,           0, 290154.4317,1250.090767,450.491552589804,-0.09058989943417083,0,23156.189214904,23155.070443547,-3.08471304297177,2.169103075386165,297.964709429795,0.8568072012894409,-0.01331303462839493,0.03008282500216307,-0.5145864422693505,0.01422815070508885,0.4418669484043992,0.7629521450960921,0.4716515492697641,-0.01415019219810995,-0.4417408355806667,-0.7630251699514496,-0.4716538945686891,1.877865113242,-0.57055909063819,37.431705576984,37.61740984793,-122.3663699242,-8889535.787408022,-14036116.82185808,12717199.27341972,-8894175.303267617,-14033177.38885957,12717199.27341972,0.018940602732823,23155.070443547,1.1187662854791,5104.92,0,-0,-0,0,37351.2,-0,0,0,0,79766.5,-69680.9,0,-0,0,0,-0,11.4425,1,0.273228,0.037343,0,0,0,0,-10,0,0,0,0,0,0,0,0,0,0,0,0,0,1,0,-19.4884474,-0.194884474,0.99946295,0.0327690617,-0.0519242204,0,0,0,0,0,0,0,0,0,0,0,0,0,0,0,0,0,0,0,0,0,0,0,0,0,0,0,0,0,0,0,0,0,0,0,0,0,0,0,0,0,0,0,0,0,0,0,0,0,0,0,0,0,0,0,0,94.4354,0,0,0,0,11.0231,11.0231
4.633333333,0,0,-0,0,0,0,0,0,0,-1.366774599785602,2.261768365687839,0.02078941284409064,-0.2948627329516105,-0.6268898417808373,0.03663736561250434,-1.365114753478387,2.26483322114431,0.01848553031195959,241.6101995,21949236.36,652.788947663,701.979957681,652.5455823101697,-4.730906553861303,24.1274692762197,-5.392309511692768,-2.606247440452548,25.20284077643433,1.313815647941503,-3.629137971398549,-2.834424751695508,-3.048533188875728,0.04418278211224561,-32.50762455073599,652.312131249244,-6.799179152288213,24.00134952103474,632.2501985563721,-185.0567811875824,242.4655339391826,-391.1244160513525,463.3059564295396,242.4655339391827,303.1254299987444,-578.3829511019034,-2.896343512849583,5302.869199424002,0,40469.87526883505,7.631694041,-3810.943192675283,55.23248798423416,-40637.48131190884,0,0,0,0,0,0,0,0,0,0,0,0,-3810.943192675283,55.23248798423416,-40637.48131190884,-306.778766504167,-2524.604047914315,22.74701198279782,0,1906.396373133553,0,0,0,0,0,0,0,0,0,0,0,0,0,-306.778766504167,-2524.604047914315,22.74701198279782,0.001133965062,3.310679166e-007,0.0002919560114,445.1362795,2116.22,866.4662554,0,0,0,0,1.939854648096181,0.7649320729048601,2.833141372890849e-034, 58987.35479, 354.2790325,           0, 354.2790325, 230717.0769,           0,           0,           0, 290154.4317,1250.090767,450.491552589804,-0.09058989943417083,0,23156.580334789,23155.407239017,-3.219875307795201,2.391604034339784,297.9541778067163,0.8567386208507196,-0.01331977471094358,0.03235348662416557,-0.514562698849923,0.01325834625159846,0.4409452906298152,0.7624161036160362,0.4734059060394179,-0.01317837171064354,-0.4408164863382839,-0.7624905833871263,-0.4734081390696462,2.1072058733724,-0.59677988563869,37.43178863547,37.617493046788,-122.36656943658,-8889472.570757514,-14036135.31238818,12717223.53626925,-8894214.424174935,-14033131.04302526,12717223.53626925,0.019358410146047,23155.407239017,1.1730903536081,5302.87,0,-0,-0,0,40469.9,-0,0,0,0,77659.3,-75752.9,0,-0,0,0,-0,11.4425,1,0.296461,0.0388461,0,0,0,0,-10,0,0,0,0,0,0,0,0,0,0,0,0,0,1,0,-19.4884474,-0.194884474,0.999323777,0.0367693902,-0.0565289929,0,0,0,0,0,0,0,0,0,0,0,0,0,0,0,0,0,0,0,0,0,0,0,0,0,0,0,0,0,0,0,0,0,0,0,0,0,0,0,0,0,0,0,0,0,0,0,0,0,0,0,0,0,0,0,0,94.4354,0,0,0,0,11.0231,11.0231
4.733333333,0,0,-0,0,0,0,0,0,0,-1.396597354258097,2.131743498496712,0.02440022924922201,-0.3040259257806879,-2.594163672866317,0.03522289783985257,-1.394928436852551,2.134813808876452,0.02211020472533182,241.2562865,21933063.7,652.315035102,702.093233682,651.9998559340409,-4.999828417971656,26.49532166468586,-5.483919745322869,-2.790808121316372,21.40472557830399,0.3115987776834537,-5.298524372916472,-1.670890976292181,-2.981286345216396,0.04780549537910945,-34.78534385437767,651.7434272575888,-7.111814506349246,26.35966882431356,632.3297280579974,-185.506063225674,242.2426971084924,-391.0430157226762,462.8548887550528,242.2426971084925,302.7421674790647,-578.0733572488924,-3.030868094549938,5481.461125642174,0,43298.70487455333,7.899117385,-3726.878534298728,59.76120839106716,-43484.83718348442,0,0,0,0,0,0,0,0,0,0,0,0,-3726.878534298728,59.76120839106716,-43484.83718348442,-328.2739058159721,-10446.03270180096,21.61859524159095,0,-5704.564341832695,0,0,0,0,0,0,0,0,0,0,0,0,0,-328.2739058159721,-10446.03270180096,21.61859524159095,0.001133949874,3.310670738e-007,0.0002919591785,445.134878,2116.22,866.4519225,0,0,0,0,1.989854648096181,0.7649320729048601,2.53817462449166e-034, 58987.35479, 354.2790325,           0, 354.2790325, 230717.0769,           0,           0,           0, 290154.4317,1250.090767,450.491552589804,-0.09058989943417083,0,23156.97302905,23155.751843691,-3.35800311191546,2.614871363658384,297.9434324811597,0.8566666577863842,-0.01334466975372702,0.03464288843697179,-0.5145328245185272,0.01229305324601083,0.4400202290435766,0.7618627447482672,0.475180215327791,-0.01221104643565435,-0.4398887401770843,-0.7619386721176071,-0.4751823297872317,2.3160572228479,-0.62467520555115,37.431871592585,37.617576144077,-122.36676884325,-8889409.340936901,-14036153.8391573,12717247.77072745,-8894253.531721691,-14033084.73361017,12717247.77072745,0.019776217559271,23155.751843691,1.2211796194315,5481.46,0,-0,-0,0,43298.7,-0,0,0,0,75731.2,-81435.8,0,-0,0,0,-0,11.4425,1,0.317649,0.0402133,0,0,0,0,-10,0,0,0,0,0,0,0,0,0,0,0,0,0,1,0,-19.4884474,-0.194884474,0.999183109,0.0404118166,-0.0608588854,0,0,0,0,0,0,0,0,0,0,0,0,0,0,0,0,0,0,0,0,0,0,0,0,0,0,0,0,0,0,0,0,0,0,0,0,0,0,0,0,0,0,0,0,0,0,0,0,0,0,0,0,0,0,0,0,94.4354,0,0,0,0,11.0231,11.0231
4.833333333,0,0,-0,0,0,0,0,0,0,-1.427269772996747,1.814301420491822,0.02777342977261165,-0.3110874970883449,-4.249065418324621,0.03096398556641047,-1.425592593957655,1.817377262150807,0.02549690346830956,240.8919383,21916399.11,651.826914021,702.200822463,651.4498983179664,-5.286838361177331,28.4288451492489,-5.44395913922692,-2.966377844235822,15.89983943034693,-0.51301391441649,-6.670078690161677,-0.7481478172362159,-2.912295612425668,0.05137821078888789,-36.6402082607715,651.1704791597846,-7.442494828174029,28.28324916079317,632.3169693944011,-186.1090127912082,242.125340767029,-391.0539681693463,462.2501846969061,242.1253407670289,302.3337406268195,-577.7595175517528,-3.371805425402833,5625.15211139174,0,45602.46154540851,8.106885048,-3640.633856220132,64.22742693838187,-45803.58605217859,0,0,0,0,0,0,0,0,0,0,0,0,-3640.633856220132,64.22742693838187,-45803.58605217859,-345.7785073514632,-17109.60488627635,20.48053621999035,0,-12115.30645707647,0,0,0,0,0,0,0,0,0,0,0,0,0,-345.7785073514632,-17109.60488627635,20.48053621999035,0.001133933758,3.310661795e-007,0.0002919625395,445.1333911,2116.22,866.4367134,0,0,0,0,2.03985464809618,0.7649320729048601,2.268793344651931e-034, 58987.35479, 354.2790325,           0, 354.2790325, 230717.0769,           0,           0,           0, 290154.4317,1250.090767,450.491552589804,-0.09058989943417083,0,23157.389746863,23156.117096844,-3.499136097694466,2.818705643073692,297.9336649737093,0.8565975894631375,-0.01347929335932013,0.0368001840940271,-0.514494533330648,0.01146717499368632,0.4391757547640345,0.7612896534233971,0.4768974983322817,-0.011383133023869,-0.439041588829177,-0.7613670358377931,-0.4768995117427626,2.4870490161163,-0.65421172313741,37.431954441249,37.617659132436,-122.36696814261,-8889346.107937666,-14036172.41880597,12717271.98839178,-8894292.635906026,-14033038.4772516,12717271.98839178,0.020194024972495,23156.117096844,1.2726438567042,5625.15,0,-0,-0,0,45602.5,-0,0,0,0,74132.2,-86247.5,0,-0,0,0,-0,11.4425,1,0.335056,0.0413298,0,0,0,0,-10,0,0,0,0,0,0,0,0,0,0,0,0,0,1,0,-19.4884474,-0.194884474,0.999058056,0.0433935641,-0.0645523109,0,0,0,0,0,0,0,0,0,0,0,0,0,0,0,0,0,0,0,0,0,0,0,0,0,0,0,0,0,0,0,0,0,0,0,0,0,0,0,0,0,0,0,0,0,0,0,0,0,0,0,0,0,0,0,0,94.4354,0,0,0,0,11.0231,11.0231
